ax,ay,az,gx,gy,gz,mx,my,mz,lax,lay,laz,q1,q2,q3,q4
0,0,0,0,0,0,0,0,0,0,0,0,0,0,0,0
0,0,0,0,0,0,0,0,0,0,0,0,0,0,0,0
-0.05337523,-0.01940918,0.00286865,0,0,0,0,0,0,0,0,0,0,0,0,0
-0.05346679,-0.01986694,0.003265379,-0.01103783,0.002755165,-0.00620842,0,0,0,0.006239891,-0.005670547,-0.008562088,0.7635031,-0.2326506,0.5926659,0.10809
-0.05355834,-0.02044677,0.00286865,-0.01073265,0.002449989,-0.00645256,0,0,0,0.006137848,-0.00614357,-0.008883476,0.763124,-0.2338161,0.5927133,0.1079926
-0.0534973,-0.02041626,0.002807615,-0.01054955,0.002327919,-0.005842209,0,0,0,0.006189346,-0.006012917,-0.008871078,0.7627476,-0.2349396,0.5927656,0.1079266
-0.05416869,-0.02035522,0.002410887,-0.01054955,0.002388954,-0.005842209,0.9384463,-0.156297,0.045513,0.005508423,-0.005852699,-0.009191513,0.7623581,-0.2360605,0.5928327,0.1078641
-0.05584715,-0.01974487,0.003234861,-0.0101223,0.002388954,-0.005292892,0.9384463,-0.156297,0.045513,0.003822327,-0.005152702,-0.008295059,0.7619795,-0.237103,0.5929086,0.1078365
-0.05639647,-0.02017212,0.004119871,-0.0101223,0.002327919,-0.005231857,0.9384463,-0.156297,0.045513,0.003264427,-0.005491257,-0.007340431,0.7616183,-0.2381392,0.5929617,0.1078117
-0.05709837,-0.02087402,0.003662108,-0.01006126,0.002785683,-0.004804611,0.9384463,-0.156297,0.045513,0.002555847,-0.006106377,-0.007722855,0.7612242,-0.2391701,0.5930568,0.1077909
-0.05709837,-0.01992797,0.004211424,-0.009817123,0.003182411,-0.004499435,0.9384463,-0.156297,0.045513,0.002550125,-0.005081177,-0.007097244,0.7608229,-0.2401487,0.5931762,0.1077904
-0.05639647,-0.02050781,0.00640869,-0.009542465,0.003029823,-0.004590988,0.9384463,-0.156297,0.045513,0.0032444,-0.005578995,-0.004834175,0.7604801,-0.2411078,0.5932307,0.1077686
-0.05603026,-0.02124023,0.006927488,-0.009572983,0.002297401,-0.00419426,0.9355539,-0.1142776,0.05751282,0.003601074,-0.006231308,-0.004258156,0.7601793,-0.2420549,0.5932299,0.1077722
-0.05670165,-0.02111816,0.007202147,-0.008810043,0.002205849,-0.003675461,0.9355539,-0.1142776,0.05751282,0.002921104,-0.006035805,-0.003929138,0.7598949,-0.2429237,0.5932377,0.1077803
-0.0567932,-0.0208435,0.00814819,-0.008871078,0.001778603,-0.003705978,0.9355539,-0.1142776,0.05751282,0.002820015,-0.005688667,-0.002937317,0.7596461,-0.2437774,0.5932013,0.1078068
-0.0569763,-0.02062988,0.008758541,-0.008993149,0.001107216,-0.003095627,0.9385538,-0.1412775,0.05451294,0.002627373,-0.005410194,-0.002287865,0.7594309,-0.2445925,0.5931255,0.1078944
-0.05670165,-0.02044677,0.008850094,-0.00859642,0.0009241104,-0.00242424,0.9385538,-0.1412775,0.05451294,0.002894402,-0.005168915,-0.002161026,0.7592283,-0.2453474,0.593052,0.1080098
-0.05828856,-0.02075195,0.008911129,-0.008413315,0.0004663467,-0.001966476,0.9385538,-0.1412775,0.05451294,0.001298904,-0.005421638,-0.00206852,0.7590414,-0.2460655,0.5929673,0.1081544
-0.05792235,-0.02001953,0.009735104,-0.008291245,0.0008935928,-0.001630783,0.911554,-0.1142776,0.03351288,0.001659393,-0.004641533,-0.001213074,0.7588507,-0.2467421,0.5929,0.1083201
-0.05834959,-0.02053833,0.01074218,-0.008138657,0.0005884171,-0.001234055,0.911554,-0.1142776,0.03351288,0.001225471,-0.005116463,-0.0001802444,0.7586917,-0.2473885,0.5928006,0.1085033
-0.05737303,-0.02041626,0.01159668,-0.007741928,0.0001916885,-0.001142502,0.911554,-0.1142776,0.03351288,0.002193451,-0.004951477,0.0006904602,0.7585772,-0.2479969,0.5926601,0.1086826
-0.05691527,-0.0206604,0.01229858,-0.007436752,-0.0002946854,-0.0006542206,0.9565539,-0.1262775,0.06951294,0.002643585,-0.005156517,0.001401901,0.7585018,-0.2485612,0.5924836,0.1088815
-0.05535887,-0.02017212,0.01049804,-0.007070541,-0.0007829666,-7.43866e-05,0.9565539,-0.1262775,0.06951294,0.004192352,-0.004635811,-0.0003900528,0.7584215,-0.2490849,0.5923255,0.1091046
-0.05590819,-0.02026367,0.009094235,-0.007436752,-0.001729012,0.000289917,0.9565539,-0.1262775,0.06951294,0.00363636,-0.0046978,-0.001786232,0.7583448,-0.2496169,0.5921487,0.1093808
-0.05541991,-0.0203247,0.008514401,-0.007284164,-0.001942635,0.0008087158,0.947554,-0.1412775,0.060513,0.004119873,-0.004733086,-0.002360344,0.7582672,-0.2501226,0.5919794,0.1096798
-0.05722044,-0.01974487,0.007263182,-0.007314682,-0.001423836,0.001754761,0.947554,-0.1412775,0.060513,0.002318382,-0.004138947,-0.003594398,0.7581257,-0.250583,0.591899,0.1100406
-0.05804442,-0.01965332,0.0067749,-0.006978989,-0.0004472733,0.002120972,0.947554,-0.1412775,0.060513,0.001497269,-0.004038811,-0.004055023,0.7579309,-0.2510144,0.5919001,0.1103929
-0.0578308,-0.02017212,0.006225584,-0.006856918,0.001015663,0.002578735,0.947554,-0.1412775,0.030513,0.001716614,-0.004551888,-0.004562378,0.7576603,-0.2514464,0.5920008,0.110726
-0.05746458,-0.01977539,0.006103514,-0.006368637,0.002419472,0.002944946,0.947554,-0.1412775,0.030513,0.002092361,-0.004153252,-0.004631042,0.7573318,-0.2518392,0.592196,0.1110368
-0.05807494,-0.01937866,0.004974363,-0.005880356,0.003975868,0.003616333,0.947554,-0.1412775,0.030513,0.001496315,-0.003764153,-0.005689621,0.7569131,-0.2521853,0.5925268,0.1113413
-0.05700682,-0.01947021,0.005157469,-0.005392075,0.005013466,0.004165649,0.9445539,-0.1382776,-0.00548645,0.002581596,-0.003868103,-0.005429268,0.7564612,-0.2524912,0.5929193,0.1116293
-0.05667113,-0.01937866,0.003906248,-0.005239487,0.004952431,0.004348755,0.9445539,-0.1382776,-0.00548645,0.00293541,-0.003790855,-0.006599426,0.7559918,-0.2527894,0.5933362,0.1119185
-0.05639647,-0.01992797,0.003662108,-0.005392075,0.004677773,0.004837036,0.9445539,-0.1382776,-0.00548645,0.003228188,-0.004355431,-0.006764412,0.7555264,-0.2530863,0.5937425,0.1122354
-0.05599974,-0.02005005,0.005096434,-0.005331039,0.003731728,0.005172729,0.9655539,-0.1622775,0.03651275,0.003641129,-0.004496574,-0.005265236,0.7551323,-0.2533472,0.5940661,0.1125866
-0.05532835,-0.02096557,0.005310057,-0.00569725,0.002999306,0.004928589,0.9655539,-0.1622775,0.03651275,0.004325867,-0.005423546,-0.004994392,0.7547756,-0.2536535,0.5943226,0.1129345
-0.05572508,-0.02050781,0.006195066,-0.005788803,0.001870155,0.005447388,0.9655539,-0.1622775,0.03651275,0.003941536,-0.004984856,-0.004065514,0.754479,-0.2539125,0.5945092,0.1133508
-0.05706786,-0.02185058,0.007202147,-0.005880356,0.001381874,0.00553894,0.9145538,-0.1322775,0.05451294,0.002609253,-0.006342888,-0.00302124,0.7542194,-0.2541822,0.5946435,0.113769
-0.05657957,-0.02221679,0.007385252,-0.006399155,0.0007104874,0.00553894,0.9145538,-0.1322775,0.05451294,0.003106117,-0.00672245,-0.002806664,0.7539867,-0.2544837,0.5947242,0.1142149
-0.05752562,-0.02236938,0.006988524,-0.006765366,0.0001001358,0.005752563,0.9145538,-0.1322775,0.05451294,0.002168655,-0.006890297,-0.003174782,0.7537621,-0.2547942,0.5947823,0.1147012
-0.05657957,-0.02227783,0.006195066,-0.007802963,-0.0002641678,0.005996704,0.932554,-0.1562775,0.05451294,0.003123283,-0.006813049,-0.003938675,0.7535204,-0.255159,0.594826,0.1152505
-0.05657957,-0.02322387,0.007385252,-0.008169174,-0.0003862381,0.005874634,0.932554,-0.1562775,0.05451294,0.003129959,-0.007769585,-0.002723694,0.7533031,-0.2555581,0.5948237,0.1157972
-0.05639647,-0.02374267,0.007446287,-0.008382797,-0.0008134842,0.005996704,0.932554,-0.1562775,0.05451294,0.00331974,-0.008296967,-0.002640724,0.753103,-0.255971,0.5947901,0.1163581
-0.05551146,-0.0234375,0.006317137,-0.008932114,-0.001545906,0.00617981,0.9235538,-0.1472775,0.03651275,0.004210472,-0.008001328,-0.003750801,0.7529048,-0.2564079,0.5947334,0.116967
-0.05484007,-0.02368164,0.004180906,-0.009420395,-0.002095222,0.006088257,0.9235538,-0.1472775,0.03651275,0.004886627,-0.00825119,-0.005864143,0.7526849,-0.2568987,0.5946773,0.1175894
-0.05496214,-0.02416992,0.004333494,-0.01006126,-0.002766609,0.006149292,0.9235538,-0.1472775,0.03651275,0.004769325,-0.00874424,-0.005693436,0.7524856,-0.2574256,0.5945708,0.1182489
-0.05532835,-0.02383422,0.002960203,-0.01042747,-0.00301075,0.006088257,0.926554,-0.1832776,0.05751282,0.004407883,-0.008413315,-0.007044792,0.7522622,-0.2579778,0.5944783,0.11893
-0.05444335,-0.02386474,0.001922606,-0.01088524,-0.003621101,0.005966187,0.926554,-0.1832776,0.05751282,0.005296707,-0.008444786,-0.008061409,0.7520418,-0.2585694,0.5943599,0.119629
-0.05514525,-0.02383422,0.001983641,-0.01131248,-0.003926277,0.006057739,0.926554,-0.1832776,0.05751282,0.004598618,-0.00841713,-0.0079813,0.751824,-0.2591742,0.5942239,0.1203623
-0.05538939,-0.02346801,0.001281736,-0.01180077,-0.003499031,0.006118774,0.9595538,-0.1682776,0.04851288,0.004360199,-0.008054733,-0.008657455,0.7515613,-0.2598055,0.5941269,0.1211184
-0.05465697,-0.0231018,0.001800535,-0.01164818,-0.003560066,0.005630493,0.9595538,-0.1682776,0.04851288,0.005096436,-0.007689476,-0.008114815,0.7513204,-0.2604395,0.5940052,0.1218459
-0.0550537,-0.02371215,0.0007934552,-0.01201439,-0.003651619,0.00553894,0.9595538,-0.1682776,0.04851288,0.004703522,-0.008296967,-0.009095192,0.7510576,-0.2611177,0.5938902,0.1225736
-0.05551146,-0.02331543,0.0004577618,-0.01256371,-0.003499031,0.005325317,0.947554,-0.1412775,0.060513,0.004249573,-0.007896423,-0.009399414,0.7507695,-0.2618308,0.5937861,0.1233192
-0.05569457,-0.0236206,0.0004577618,-0.01314354,-0.003437996,0.005233765,0.947554,-0.1412775,0.060513,0.004070282,-0.008194923,-0.009366035,0.7504677,-0.2625867,0.5936754,0.1240795
-0.05548094,-0.02328491,0.001708983,-0.01402855,-0.003376961,0.005050659,0.947554,-0.1412775,0.060513,0.004286766,-0.007851601,-0.008084297,0.7501708,-0.2633835,0.5935304,0.1248777
-0.05499266,-0.0231018,0.002777098,-0.01439476,-0.003560066,0.004745483,0.9565539,-0.1562775,0.05451294,0.004776955,-0.007657051,-0.006990433,0.7498991,-0.2642006,0.5933405,0.1256834
-0.05569457,-0.02346801,0.003906248,-0.01500511,-0.003865242,0.004379272,0.9565539,-0.1562775,0.05451294,0.004074097,-0.008008003,-0.005841255,0.7496516,-0.2650598,0.593096,0.1265018
-0.05526732,-0.02410888,0.004089354,-0.01546288,-0.004536629,0.003921509,0.9565539,-0.1562775,0.05451294,0.004497528,-0.008625984,-0.005642891,0.7494353,-0.2659715,0.592787,0.1273152
-0.05432128,-0.02328491,0.004913328,-0.01659203,-0.004811287,0.003860474,0.9565539,-0.1562775,0.05451294,0.005439758,-0.007779121,-0.004807472,0.7492254,-0.2669257,0.5924336,0.1281961
-0.05474852,-0.02420043,0.00552368,-0.01704979,-0.005482674,0.003463745,0.9565539,-0.1562775,0.05451294,0.005005836,-0.008665085,-0.004193306,0.7490513,-0.2679279,0.5920102,0.1290756
-0.0545349,-0.02392578,0.005828856,-0.01775169,-0.006093025,0.003463745,0.9565539,-0.1562775,0.05451294,0.005210876,-0.008360863,-0.003889084,0.7488948,-0.2689552,0.5915389,0.1300048
-0.05407714,-0.02328491,0.00564575,-0.01830101,-0.006123543,0.003250122,0.9655539,-0.1712775,0.02151276,0.005661011,-0.007689476,-0.004071236,0.7487252,-0.2700123,0.5910617,0.1309571
-0.05410765,-0.02328491,0.006561277,-0.01869774,-0.006123543,0.003219604,0.9655539,-0.1712775,0.02151276,0.00562191,-0.007658005,-0.003157616,0.7485635,-0.2710833,0.59056,0.1319291
-0.05270385,-0.02294922,0.00564575,-0.01933861,-0.00603199,0.002914429,0.9655539,-0.1712775,0.02151276,0.007017136,-0.007287025,-0.004069328,0.7483724,-0.2722114,0.5900635,0.132908
-0.05270385,-0.02377319,0.006958006,-0.01976585,-0.006855965,0.002700806,0.9445539,-0.1442776,0.01851288,0.007005692,-0.008070946,-0.002764702,0.7482368,-0.2733682,0.5894759,0.1339005
-0.05169677,-0.02319336,0.00564575,-0.02028465,-0.007435799,0.002578735,0.9445539,-0.1442776,0.01851288,0.008000374,-0.007450104,-0.004084587,0.7480926,-0.2745573,0.5888727,0.1349238
-0.05136107,-0.02133178,0.004730223,-0.02074242,-0.007527351,0.002487183,0.9445539,-0.1442776,0.01851288,0.008331299,-0.005580902,-0.005019188,0.7479697,-0.2755509,0.5882812,0.1361545
-0.05056762,-0.02172851,0.004211424,-0.02095604,-0.008778572,0.002426147,0.926554,-0.1532776,0.04251282,0.009117126,-0.005968094,-0.005567551,0.7478969,-0.2765456,0.587613,0.1374173
-0.05010985,-0.02249145,0.003967283,-0.02153587,-0.009327888,0.00227356,0.926554,-0.1532776,0.04251282,0.009566307,-0.006719589,-0.005844116,0.7478356,-0.2775736,0.5869024,0.1387085
-0.05120848,-0.02200317,0.003295897,-0.02239037,-0.009846687,0.002182007,0.926554,-0.1532776,0.04251282,0.008458138,-0.006217957,-0.006551743,0.747778,-0.278648,0.5861493,0.1400432
-0.05255126,-0.02044677,0.004394529,-0.02217674,-0.009602547,0.002120972,0.9385538,-0.1172775,0.060513,0.007102966,-0.004623413,-0.005470276,0.7476478,-0.2798907,0.5854403,0.1412209
-0.05300902,-0.02124023,0.004730223,-0.02217674,-0.009144783,0.002059937,0.9385538,-0.1172775,0.060513,0.006631851,-0.005375862,-0.005147934,0.7475017,-0.2811508,0.5847434,0.1423739
-0.05392455,-0.02069091,0.005218504,-0.0224514,-0.008381844,0.002029419,0.9385538,-0.1172775,0.060513,0.00570488,-0.004788399,-0.004667282,0.7473174,-0.2824149,0.5840849,0.1435375
-0.05328368,-0.02059936,0.006011961,-0.02281761,-0.007954597,0.00239563,0.947554,-0.1862775,0.030513,0.006335258,-0.00466156,-0.003878593,0.7471168,-0.2836793,0.5834339,0.1447312
-0.05392455,-0.02029419,0.007171629,-0.02321434,-0.007527351,0.002182007,0.947554,-0.1862775,0.030513,0.005683899,-0.004320145,-0.002723694,0.7469069,-0.2849587,0.5827792,0.1459342
-0.05285643,-0.02075195,0.007904049,-0.02339745,-0.007679939,0.002304077,0.947554,-0.1862775,0.030513,0.00674057,-0.004739761,-0.001999855,0.7467149,-0.2862457,0.5820896,0.1471452
-0.05239867,-0.02127075,0.009307858,-0.02345848,-0.008137703,0.0025177,0.932554,-0.1562775,-0.002486572,0.007185936,-0.005220413,-0.0006141663,0.7465665,-0.2875181,0.5813403,0.1483747
-0.05187987,-0.02145385,0.00939941,-0.02406883,-0.008717537,0.002792358,0.932554,-0.1562775,-0.002486572,0.00769043,-0.005366325,-0.000544548,0.7464282,-0.2888097,0.5805491,0.1496544
-0.0517578,-0.02090454,0.009765621,-0.02474022,-0.00981617,0.002822876,0.932554,-0.1562775,-0.002486572,0.007797241,-0.004780769,-0.0002088547,0.7463255,-0.2901095,0.5796837,0.1510009
-0.05233764,-0.02075195,0.00927734,-0.02477074,-0.009663582,0.003097534,0.9505539,-0.1532776,0.01851288,0.007204056,-0.004595757,-0.0007247925,0.7461963,-0.2913989,0.5788459,0.1523644
-0.05285643,-0.02154541,0.01019287,-0.02510643,-0.009633064,0.003494263,0.9505539,-0.1532776,0.01851288,0.006671906,-0.005357742,0.000161171,0.7460676,-0.2926933,0.5779902,0.1537556
-0.05392455,-0.02160644,0.01034546,-0.02544212,-0.009694099,0.003494263,0.9505539,-0.1532776,0.01851288,0.005590439,-0.005387306,0.0002851486,0.7459289,-0.2940002,0.5771282,0.1551671
-0.05319213,-0.02053833,0.01000976,-0.02571678,-0.009633064,0.003585815,0.9355539,-0.1742776,0.003512878,0.006310463,-0.004290581,-7.724762e-05,0.7457696,-0.2953023,0.5762789,0.1566097
-0.0533142,-0.02099609,0.0100708,-0.02589989,-0.009694099,0.003707886,0.9355539,-0.1742776,0.003512878,0.006175995,-0.004719734,-4.291534e-05,0.7456055,-0.2966153,0.5754201,0.1580606
-0.0543518,-0.01995849,0.01028442,-0.0262661,-0.009663582,0.003768921,0.9355539,-0.1742776,0.003512878,0.005127907,-0.003658295,0.0001459122,0.7454236,-0.297918,0.5745698,0.159555
-0.05459594,-0.02026367,0.0100708,-0.02623558,-0.009602547,0.003982544,0.932554,-0.1712775,-0.002486572,0.004873276,-0.003940582,-9.155273e-05,0.745229,-0.2992163,0.5737291,0.1610529
-0.05429076,-0.02005005,0.01040649,-0.02629662,-0.01012135,0.004196167,0.932554,-0.1712775,-0.002486572,0.005167961,-0.003705978,0.0002145767,0.7450559,-0.3004941,0.5728545,0.1625811
-0.05368041,-0.02047729,0.01013183,-0.02702904,-0.01057911,0.004104614,0.932554,-0.1712775,-0.002486572,0.005765915,-0.004108429,-9.155273e-05,0.7448814,-0.301824,0.5719385,0.1641344
-0.05242919,-0.02020263,0.01010131,-0.02712059,-0.01164722,0.004226685,0.9445539,-0.1892776,-0.01448639,0.007003784,-0.003809929,-0.0001621246,0.744749,-0.3031383,0.5709572,0.1657221
-0.05255126,-0.0201416,0.0112915,-0.02742577,-0.01164722,0.004318237,0.9445539,-0.1892776,-0.01448639,0.006867409,-0.003725052,0.0009832382,0.7446253,-0.3044498,0.5699495,0.1673346
-0.05392455,-0.01959228,0.01119995,-0.02794456,-0.01204395,0.004348755,0.9445539,-0.1892776,-0.01448639,0.005480766,-0.003154755,0.0008468628,0.7444921,-0.3057676,0.568927,0.1689959
-0.05447387,-0.02023315,0.01092529,-0.02812767,-0.01189137,0.004928589,0.9505539,-0.1682776,0.009512939,0.004919052,-0.003778458,0.0005311966,0.7443302,-0.3070849,0.5679248,0.170683
-0.05450438,-0.0208435,0.0105896,-0.02834129,-0.0114336,0.004959106,0.9505539,-0.1682776,0.009512939,0.004876137,-0.004367828,0.0001602173,0.7441337,-0.308433,0.5669452,0.1723571
-0.05484007,-0.02001953,0.01110839,-0.02824974,-0.01094532,0.005081177,0.9505539,-0.1682776,0.009512939,0.004530907,-0.003528595,0.0006456375,0.7439173,-0.309752,0.5659948,0.1740411
-0.0552368,-0.01953125,0.009979244,-0.02855492,-0.01033497,0.005477905,0.947554,-0.1802774,-0.008486633,0.004127502,-0.003029823,-0.0005054474,0.743633,-0.3110787,0.5651117,0.1757513
-0.05477904,-0.01864624,0.01074218,-0.02895164,-0.00993824,0.006027222,0.947554,-0.1802774,-0.008486633,0.004580498,-0.002140999,0.0002374649,0.7433234,-0.3123834,0.5642467,0.1775172
-0.05377196,-0.01916504,0.01080322,-0.02901268,-0.009358406,0.005752563,0.947554,-0.1802774,-0.008486633,0.005581856,-0.002650261,0.0002822876,0.7429939,-0.3137229,0.5633917,0.1792418
-0.05371093,-0.01843261,0.0105896,-0.029562,-0.009785652,0.006057739,0.9445539,-0.1742776,-0.01448639,0.005639076,-0.001913071,5.149841e-05,0.7426544,-0.3150607,0.5625206,0.1810288
-0.05410765,-0.01873779,0.01156616,-0.02968407,-0.009663582,0.006240845,0.9445539,-0.1742776,-0.01448639,0.005237579,-0.002214432,0.001008987,0.7423173,-0.3163913,0.5616363,0.182828
-0.05438231,-0.01901245,0.01153564,-0.03001976,-0.009907722,0.006271362,0.9445539,-0.1742776,-0.01448639,0.004958153,-0.002484322,0.0009584427,0.7419765,-0.3177392,0.5607308,0.1846442
-0.05477904,-0.01849365,0.01150512,-0.03035545,-0.01006031,0.006576538,0.9055539,-0.1862775,-0.03248657,0.00455761,-0.001965523,0.0009069443,0.7416206,-0.3190778,0.5598247,0.1865056
-0.0550537,-0.01867675,0.01147461,-0.03038597,-0.0102129,0.006576538,0.9055539,-0.1862775,-0.03248657,0.004277229,-0.002147675,0.0008554459,0.7412503,-0.3204172,0.558907,0.1883686
-0.05508421,-0.01861572,0.01306152,-0.03120995,-0.01100636,0.006515503,0.9055539,-0.1862775,-0.03248657,0.00424099,-0.002083778,0.002410889,0.7409331,-0.3217731,0.5578975,0.1902902
-0.05517577,-0.01916504,0.01361084,-0.03185081,-0.01179981,0.00617981,0.9238077,-0.1802774,-0.05653534,0.0041399,-0.002624512,0.002920151,0.7406448,-0.3231704,0.5568067,0.1922312
-0.05444335,-0.01904297,0.01379394,-0.0320034,-0.01311207,0.006332397,0.9238077,-0.1802774,-0.05653534,0.004860878,-0.002494812,0.003051758,0.7404061,-0.3245467,0.5556335,0.1942182
-0.05398558,-0.01947021,0.01443481,-0.03288841,-0.01411915,0.005844116,0.9238077,-0.1802774,-0.05653534,0.005302429,-0.002905846,0.003631592,0.7402042,-0.3259792,0.5543552,0.1962322
-0.05468749,-0.01916504,0.01409912,-0.03325462,-0.01494312,0.005935669,0.9238077,-0.1802774,-0.05653534,0.004585266,-0.002586365,0.003231049,0.7400088,-0.3274095,0.5530387,0.1982927
-0.05407714,-0.02020263,0.01382446,-0.03380394,-0.01570606,0.006210327,0.9238077,-0.1802774,-0.05653534,0.005177498,-0.003606796,0.002885818,0.7398221,-0.3288713,0.5516651,0.2003864
-0.05450438,-0.02212524,0.01473999,-0.03438377,-0.01585865,0.005599976,0.9238077,-0.1802774,-0.05653534,0.004728317,-0.00549984,0.00372982,0.7396516,-0.3304125,0.5502203,0.2024436
-0.05484007,-0.02044677,0.01296997,-0.03441429,-0.01823902,0.004440308,0.9268079,-0.1742776,-0.06853546,0.004366875,-0.003786087,0.001873016,0.7395484,-0.3319513,0.5486635,0.2045184
-0.05599974,-0.01666259,0.005004881,-0.03572655,-0.01759815,0.004379272,0.9268079,-0.1742776,-0.06853546,0.003190994,2.384186e-05,-0.006138802,0.7392105,-0.3335901,0.5473214,0.20666
-0.06838988,-0.01608276,0.01065063,-0.03734398,-0.01228809,0.006088257,0.9268079,-0.1742776,-0.06853546,-0.009203911,0.0006113052,-0.0005092621,0.7386748,-0.3352457,0.5461926,0.2088734
-0.0620117,-0.01626587,0.02120971,-0.03664207,-0.007374763,0.007614136,0.9178079,-0.1832776,-0.05353546,-0.00282383,0.000415802,0.01004124,0.7380918,-0.3367349,0.5452134,0.2110883
-0.05465697,-0.01986694,0.02734374,-0.03569603,-0.002552986,0.008071899,0.9178079,-0.1832776,-0.05353546,0.00453186,-0.003184319,0.01618099,0.7374822,-0.3382472,0.5443196,0.2131006
-0.05398558,-0.0248413,0.02096557,-0.03566551,0.001046181,0.008590698,0.9178079,-0.1832776,-0.05353546,0.005210876,-0.008143425,0.009864807,0.7366188,-0.3399687,0.5437023,0.2149188
-0.04974364,-0.02764892,0.0173645,-0.03664207,0.000954628,0.007980347,0.9148077,-0.1952774,-0.08053528,0.009456635,-0.01091576,0.00633812,0.7357055,-0.3418772,0.5430536,0.2166563
-0.04165649,-0.02435302,0.007568358,-0.03746605,-0.003773689,0.006973267,0.9148077,-0.1952774,-0.08053528,0.01755524,-0.007619858,-0.003396034,0.7347676,-0.3436264,0.5424024,0.2186965
-0.04818724,-0.02450561,0.0105896,-0.04027367,-0.007374763,0.006484985,0.9148077,-0.1952774,-0.08053528,0.01102829,-0.007763863,-0.0003385544,0.7339063,-0.3454897,0.5414848,0.2209177
-0.0484619,-0.01974487,0.01501464,-0.04112816,-0.01213551,0.006484985,0.9508078,-0.1982776,-0.09853546,0.01075077,-0.00299263,0.004081726,0.7332112,-0.3473172,0.5402808,0.2232973
-0.04595947,-0.0178833,0.0220642,-0.04118919,-0.01497364,0.006210327,0.9508078,-0.1982776,-0.09853546,0.01324368,-0.00111866,0.01110172,0.7326277,-0.3491071,0.5389038,0.2257368
-0.04858397,-0.02145385,0.02383422,-0.04076195,-0.01729298,0.004959106,0.9508078,-0.1982776,-0.09853546,0.01058578,-0.004641533,0.01276684,0.7324696,-0.350844,0.5369953,0.228093
-0.05273436,-0.02194213,0.01934814,-0.04121971,-0.01961231,0.003250122,0.9448078,-0.1532776,-0.09853546,0.006398201,-0.005066872,0.00817585,0.7323131,-0.3526846,0.5350084,0.2304146
-0.0578308,-0.01852417,0.01205444,-0.04134178,-0.01988697,0.004013062,0.9448078,-0.1532776,-0.09853546,0.001276016,-0.001606941,0.0008058548,0.7319663,-0.3545025,0.5332336,0.232829
-0.06570433,-0.02041626,0.01651,-0.04179955,-0.01653004,0.005050659,0.9448078,-0.1532776,-0.09853546,-0.006613731,-0.003473282,0.005220413,0.7314149,-0.3563345,0.5317023,0.235256
-0.06033324,-0.02371215,0.02395629,-0.04054832,-0.01625538,0.004714966,0.9568079,-0.1862775,-0.09553528,-0.001257896,-0.006741524,0.01262569,0.7308838,-0.3581111,0.5301934,0.2376033
-0.05456542,-0.02713012,0.02545165,-0.04073143,-0.01744556,0.002944946,0.9568079,-0.1862775,-0.09553528,0.004466057,-0.01007843,0.01401615,0.730745,-0.3599698,0.5281455,0.2397728
-0.05877684,-0.02642822,0.0201416,-0.04054832,-0.01939869,0.001602173,0.9568079,-0.1862775,-0.09553528,0.000210762,-0.009288788,0.008607864,0.7305824,-0.3618745,0.5260906,0.2419096
-0.05990599,-0.02407836,0.01467895,-0.04140282,-0.02330494,-0.0001659393,0.9268079,-0.1682776,-0.1075354,-0.0009689331,-0.00684166,0.003034592,0.7304569,-0.3638436,0.5238894,0.244102
-0.05813597,-0.02197265,0.01522827,-0.04192162,-0.02846241,-0.001264572,0.9268079,-0.1682776,-0.1075354,0.0007400513,-0.00463295,0.003426552,0.7305374,-0.3657421,0.5213598,0.2464287
-0.05593871,-0.01785278,0.0119934,-0.04158592,-0.03246021,-0.001813889,0.9268079,-0.1682776,-0.1075354,0.002871513,-0.0004177094,8.583069e-06,0.7307131,-0.3675342,0.5186891,0.2488651
-0.06411742,-0.01919555,0.01492309,-0.04173851,-0.0315752,-0.002393723,0.902808,-0.2132776,-0.1075354,-0.005373001,-0.001662254,0.002760887,0.7308615,-0.3693313,0.516035,0.2512745
-0.07122801,-0.02133178,0.01712036,-0.0396328,-0.03004932,-0.003278732,0.902808,-0.2132776,-0.1075354,-0.01254845,-0.003694534,0.004795074,0.7309852,-0.3710905,0.5135049,0.2534956
-0.0706787,-0.0196228,0.01397705,-0.03862572,-0.026021,-0.003767014,0.902808,-0.2132776,-0.1075354,-0.01205826,-0.001879692,0.001523018,0.7309793,-0.3728856,0.5111981,0.2555327
-0.07562254,-0.01849365,0.01065063,-0.03697777,-0.02049732,-0.004072189,0.9327493,-0.2012677,-0.125506,-0.01705265,-0.0006437302,-0.001885414,0.7308026,-0.374704,0.5092167,0.2573286
-0.07406615,-0.02139282,0.01403808,-0.03575706,-0.01668262,-0.004743576,0.9327493,-0.2012677,-0.125506,-0.01554108,-0.00343132,0.001450539,0.7305186,-0.3765517,0.5074475,0.2589281
-0.06936644,-0.02233886,0.01657104,-0.03468895,-0.01591969,-0.00520134,0.9327493,-0.2012677,-0.125506,-0.01088619,-0.004264832,0.003936768,0.7302383,-0.3783692,0.5057243,0.2604366
-0.06719969,-0.0203247,0.01705932,-0.03398705,-0.01390553,-0.00532341,0.9237491,-0.1952676,-0.1495059,-0.008760452,-0.002137184,0.004394531,0.7298969,-0.3801893,0.5041195,0.2618509
-0.07131957,-0.02233886,0.02087402,-0.03328514,-0.01189137,-0.005659103,0.9237491,-0.1952676,-0.1495059,-0.01291943,-0.004036903,0.008195877,0.7294996,-0.3820204,0.5026271,0.2631592
-0.06518553,-0.0236206,0.02508544,-0.03270531,-0.01183033,-0.005720139,0.9237491,-0.1952676,-0.1495059,-0.006824493,-0.005204201,0.01239395,0.7291126,-0.3838201,0.5011443,0.2644382
-0.0658264,-0.02636718,0.03002929,-0.03240013,-0.01222706,-0.005903244,0.9327493,-0.1562677,-0.1645059,-0.007505417,-0.007835388,0.01732063,0.7287483,-0.385599,0.4996367,0.265705
-0.06384276,-0.02416992,0.02832031,-0.03188133,-0.01353931,-0.005659103,0.9327493,-0.1562677,-0.1645059,-0.005563736,-0.005526543,0.01558113,0.7284389,-0.3873105,0.4980702,0.2670023
-0.06604002,-0.02490234,0.02899169,-0.03255272,-0.01329517,-0.005292892,0.9327493,-0.1562677,-0.1645059,-0.00780201,-0.006148338,0.01622772,0.7280877,-0.3890475,0.4965108,0.2683362
-0.07125853,-0.02648925,0.03085326,-0.0323391,-0.01225758,-0.004835129,0.9267493,-0.1892679,-0.1525061,-0.01305866,-0.007629395,0.01807308,0.7276889,-0.3907737,0.4950234,0.2696548
-0.06774901,-0.02459716,0.03259277,-0.03087425,-0.01121998,-0.00431633,0.9267493,-0.1892679,-0.1525061,-0.009583473,-0.005639076,0.01980209,0.7272791,-0.3924178,0.4936358,0.2709142
-0.06878661,-0.02664184,0.03170776,-0.03215599,-0.01262379,-0.005079269,0.9267493,-0.1892679,-0.1525061,-0.01066017,-0.007575989,0.01889801,0.7268945,-0.3941301,0.4921177,0.2722197
-0.06976317,-0.02508544,0.03079223,-0.03111839,-0.0119524,-0.003889084,0.9327493,-0.1622678,-0.1735062,-0.01167107,-0.005924225,0.01796722,0.7264863,-0.3957514,0.4906908,0.2735301
-0.07424925,-0.02246093,0.03094482,-0.02943993,-0.008717537,-0.003278732,0.9327493,-0.1622678,-0.1735062,-0.01618385,-0.003212929,0.01812935,0.7259907,-0.3973219,0.4894935,0.2747123
-0.07165526,-0.02401733,0.02932739,-0.02889061,-0.007863045,-0.003339767,0.9327493,-0.1622678,-0.1735062,-0.01361561,-0.004683495,0.01652718,0.725477,-0.3988801,0.4883506,0.2758433
-0.06567381,-0.02606201,0.02783202,-0.02806664,-0.008259773,-0.00318718,0.9177493,-0.1832678,-0.191506,-0.007659912,-0.006645203,0.01504135,0.7249963,-0.4003766,0.4872051,0.2769626
-0.06857298,-0.0234375,0.02786254,-0.02721214,-0.008900642,-0.002820969,0.9177493,-0.1832678,-0.191506,-0.01058388,-0.00394249,0.01507378,0.7245542,-0.4017968,0.4860511,0.2780887
-0.06744383,-0.02368164,0.02685546,-0.026968,-0.009175301,-0.002576828,0.9177493,-0.1832678,-0.191506,-0.009480476,-0.00411129,0.01406574,0.724121,-0.4031867,0.4848922,0.2792263
-0.06570433,-0.02386474,0.02651977,-0.02660179,-0.008778572,-0.002210617,0.9357492,-0.1532678,-0.185506,-0.007764816,-0.00422287,0.01373196,0.7236733,-0.4045494,0.483772,0.2803571
-0.06814574,-0.02505493,0.02642822,-0.0259304,-0.00880909,-0.002119064,0.9357492,-0.1532678,-0.185506,-0.01023006,-0.005343437,0.0136404,0.7232422,-0.4058692,0.4826651,0.2814678
-0.0651245,-0.0236206,0.02288818,-0.02504539,-0.008015633,-0.001234055,0.9357492,-0.1532678,-0.185506,-0.007227898,-0.003849983,0.01010513,0.7227872,-0.4071229,0.4816463,0.282569
-0.06668089,-0.02651977,0.02218627,-0.02507591,-0.007496834,-0.001356125,0.9357492,-0.1532678,-0.185506,-0.008803368,-0.006688118,0.009412766,0.722312,-0.4083924,0.4806498,0.2836474
-0.06423949,-0.02453613,0.02035522,-0.02449608,-0.006459236,-0.0005016327,0.9357492,-0.1532678,-0.185506,-0.006376266,-0.004652023,0.007598877,0.7217955,-0.4096195,0.4797477,0.2847182
-0.06491087,-0.0229187,0.02215576,-0.02379417,-0.004445076,0.0001068115,0.9357492,-0.1532678,-0.185506,-0.007055283,-0.002989769,0.009432793,0.7212114,-0.4108279,0.478989,0.285733
-0.06265257,-0.02352905,0.0223999,-0.02303123,-0.004445076,0.0004425049,0.9117883,-0.1742679,-0.2065158,-0.004804611,-0.003559113,0.009707451,0.7206416,-0.4119807,0.4782558,0.2867374
-0.06249999,-0.02416992,0.02029418,-0.02278709,-0.003743172,0.001144409,0.9117883,-0.1742679,-0.2065158,-0.004655838,-0.004165649,0.007637978,0.7200361,-0.4131085,0.4775872,0.2877485
-0.06750487,-0.02581787,0.01934814,-0.02254295,-0.002308846,0.001174927,0.9117883,-0.1742679,-0.2065158,-0.009661674,-0.005781174,0.00674057,0.7193832,-0.414252,0.4770021,0.2887064
-0.06314085,-0.02554321,0.01809692,-0.02229881,-0.002614021,0.001205444,0.9387882,-0.1562677,-0.1945157,-0.005298615,-0.005474091,0.005534172,0.7187464,-0.4153731,0.4764052,0.2896658
-0.06585692,-0.02740478,0.01831054,-0.02266502,-0.002614021,0.001113892,0.9387882,-0.1562677,-0.1945157,-0.008016586,-0.007302284,0.005794525,0.7180979,-0.4165164,0.4757959,0.2906327
-0.06518553,-0.02767944,0.01760864,-0.02287865,-0.003834724,0.0009613037,0.9387882,-0.1562677,-0.1945157,-0.007349014,-0.007541656,0.00512886,0.7174879,-0.4176485,0.4751087,0.2916369
-0.06314085,-0.02713012,0.01840209,-0.02339745,-0.005574226,0.0006256104,0.9117883,-0.1442679,-0.2005157,-0.00531292,-0.006953239,0.005945206,0.7169297,-0.4187812,0.4743026,0.2926959
-0.06332396,-0.02566528,0.0198059,-0.02370262,-0.006550789,0.0003814697,0.9117883,-0.1442679,-0.2005157,-0.005507469,-0.005446434,0.007364273,0.7163999,-0.4199161,0.4734269,0.2937827
-0.06170653,-0.02783203,0.01986694,-0.02382469,-0.004597664,0.002182007,0.9117883,-0.1442679,-0.2005157,-0.003891945,-0.007587433,0.007457733,0.7157529,-0.421035,0.4727111,0.2949088
-0.05725096,-0.03109741,0.02008056,-0.02159691,-0.008290291,-1.335144e-05,0.9177884,-0.1682678,-0.2155157,0.0005292892,-0.01077652,0.007639885,0.7155559,-0.4221005,0.4714889,0.2958189
-0.05328368,-0.032135,0.008575436,-0.02327538,-0.01164722,-0.0005016327,0.9177884,-0.1682678,-0.2155157,0.004460335,-0.0117197,-0.003881454,0.7152613,-0.4234032,0.4701793,0.2967524
-0.06927489,-0.03903197,0.01419067,-0.02785301,-0.01082325,-0.00141716,0.9177884,-0.1682678,-0.2155157,-0.01155567,-0.01855183,0.001725197,0.7147804,-0.4247271,0.4689118,0.2980224
-0.05114745,-0.02801513,0.02105712,-0.02754784,-0.01823902,-0.001630783,0.9237881,-0.1322678,-0.1945157,0.006513596,-0.007436752,0.008483887,0.7148036,-0.4258875,0.4669342,0.2994124
-0.04522704,-0.02807617,0.03106689,-0.0287075,-0.02113819,-0.0004405975,0.9237881,-0.1322678,-0.1945157,0.01236248,-0.007404327,0.0183239,0.7150643,-0.4268615,0.4645892,0.3010463
-0.06945799,-0.03332519,0.03344726,-0.02693748,-0.01973438,-0.0005321503,0.9237881,-0.1322678,-0.1945157,-0.01190853,-0.01259613,0.02061653,0.7148966,-0.4278947,0.462876,0.3026129
-0.05108641,-0.02603149,0.0140686,-0.02544212,-0.02019215,-0.001142502,0.8997882,-0.1172678,-0.2335159,0.006409645,-0.005217552,0.001133919,0.7148914,-0.4289452,0.4610012,0.3039966
-0.07595824,-0.04071044,0.009765621,-0.0297451,-0.01360035,-0.001142502,0.8997882,-0.1172678,-0.2335159,-0.0184927,-0.01982784,-0.003193855,0.7144209,-0.4302901,0.4595315,0.3054238
-0.06298827,-0.03338622,0.009948727,-0.02971458,-0.01610279,-0.0003795624,0.8997882,-0.1172678,-0.2335159,-0.005556107,-0.01244164,-0.00305748,0.7140167,-0.4315457,0.4579483,0.3069716
-0.04513549,-0.02200317,0.01651,-0.02913475,-0.02064991,-0.0003795624,0.9357883,-0.1382678,-0.2395157,0.01225471,-0.0009975433,0.003416061,0.7137854,-0.4326602,0.4561279,0.3086467
-0.05831908,-0.02661132,0.01672363,-0.0292263,-0.02083302,-0.0002269745,0.9357883,-0.1382678,-0.2395157,-0.0009803772,-0.00552845,0.003530502,0.7136353,-0.4338032,0.4541689,0.3102738
-0.05484007,-0.03082275,0.01641845,-0.02928734,-0.02403736,-0.001111984,0.9357883,-0.1382678,-0.2395157,0.00243187,-0.009635925,0.003099442,0.7136468,-0.4349875,0.4519193,0.3118701
-0.05197142,-0.02600097,0.0067749,-0.02882957,-0.02580738,-0.0004711151,0.9147882,-0.1472678,-0.2335159,0.005242348,-0.004727364,-0.006654739,0.7135348,-0.4361589,0.4498072,0.3135391
-0.06793211,-0.0307312,0.008453365,-0.03020287,-0.0202837,-0.0005931854,0.9147882,-0.1472678,-0.2335159,-0.01076221,-0.009390831,-0.005054474,0.7132375,-0.4373358,0.44796,0.3152161
-0.06216429,-0.02584838,0.007720945,-0.02892113,-0.02034473,0.0002288818,0.9147882,-0.1472678,-0.2335159,-0.005033493,-0.004439354,-0.005844116,0.7128555,-0.4385682,0.4462443,0.3167976
-0.05004882,-0.02172851,0.008972164,-0.02849388,-0.02165699,0.0003204346,0.9177884,-0.1142679,-0.2395157,0.007038116,-0.0002632141,-0.004688263,0.7126291,-0.4395812,0.4443879,0.3185078
-0.05786131,-0.02606201,0.007110594,-0.02788353,-0.01930714,0.0009918213,0.9177884,-0.1142679,-0.2395157,-0.0008106232,-0.004530907,-0.00660038,0.7122325,-0.4407753,0.4427442,0.3200301
-0.05807494,-0.02490234,0.005004881,-0.02663231,-0.01884937,0.0007476807,0.9177884,-0.1142679,-0.2395157,-0.001058578,-0.003310204,-0.008749008,0.7118187,-0.4419321,0.4411999,0.321485
-0.0550537,-0.02737426,0.006134031,-0.02742577,-0.01787281,0.000289917,0.9147882,-0.1172678,-0.2665158,0.001923561,-0.005702972,-0.007657051,0.7114037,-0.4431987,0.4395903,0.3228619
-0.05722044,-0.02755737,0.007324217,-0.026968,-0.01796436,0.0008392334,0.9147882,-0.1172678,-0.2665158,-0.0002794266,-0.005815506,-0.006508827,0.7109952,-0.4443948,0.4380032,0.3242715
-0.05590819,-0.02429199,0.01089477,-0.02687645,-0.01796436,0.0003509521,0.9147882,-0.1172678,-0.2665158,0.0009946823,-0.002486229,-0.002993584,0.7106445,-0.4454885,0.4363784,0.3257269
-0.05511473,-0.02401733,0.01193237,-0.02660179,-0.01833057,0.0005950928,0.9177884,-0.1382678,-0.2845157,0.001747131,-0.002151489,-0.002019882,0.7103021,-0.4465274,0.4347279,0.3272067
-0.05444335,-0.02529907,0.01400756,-0.02663231,-0.01775074,0.0006866455,0.9177884,-0.1382678,-0.2845157,0.002378464,-0.003368378,-1.049042e-05,0.7100039,-0.4475653,0.4330522,0.3286632
-0.05514525,-0.02609252,0.01333618,-0.02672386,-0.01732349,0.0006256104,0.9177884,-0.1382678,-0.2845157,0.001635551,-0.00409317,-0.0007400513,0.709673,-0.4486408,0.4314009,0.3300886
-0.05545042,-0.02770996,0.01416015,-0.02712059,-0.01686573,0.000869751,0.8847882,-0.1052676,-0.2785159,0.001289368,-0.00564003,2.95639e-05,0.7093227,-0.4497508,0.4297383,0.3315046
-0.05084227,-0.02682495,0.01672363,-0.02760887,-0.01781178,0.001296997,0.8847882,-0.1052676,-0.2785159,0.005852699,-0.004684448,0.002519608,0.7090358,-0.4507992,0.427954,0.3330049
-0.05096434,-0.02642822,0.0173645,-0.02812767,-0.01796436,0.0009613037,0.8847882,-0.1052676,-0.2785159,0.005682945,-0.004214287,0.00308609,0.7087448,-0.451862,0.4261332,0.33452
-0.05203246,-0.02450561,0.01669311,-0.02779198,-0.01839161,0.001449585,0.8907883,-0.1112677,-0.2905158,0.004571915,-0.002231598,0.002338409,0.7084302,-0.452854,0.4243638,0.3360949
-0.0510559,-0.02438354,0.01522827,-0.02815819,-0.01790333,0.001846313,0.8907883,-0.1112677,-0.2905158,0.005509377,-0.0020504,0.0008087158,0.7080517,-0.4538875,0.4226398,0.3376707
-0.05255126,-0.02566528,0.01589965,-0.02791405,-0.01588917,0.002578735,0.8907883,-0.1112677,-0.2905158,0.003979683,-0.003277779,0.001430511,0.7076008,-0.4549396,0.4210404,0.3391979
-0.04968261,-0.02505493,0.01443481,-0.02831078,-0.01512623,0.002792358,0.9058762,-0.117258,-0.2905743,0.006816864,-0.00261116,-7.247925e-05,0.7070908,-0.4560439,0.4194818,0.3407071
-0.04702758,-0.025177,0.01559448,-0.02855492,-0.01588917,0.002975464,0.9058762,-0.117258,-0.2905743,0.009446144,-0.002696037,0.001048088,0.7065258,-0.457074,0.4179855,0.3423324
-0.04519653,-0.02447509,0.01519775,-0.02806664,-0.01781178,0.002792358,0.9058762,-0.117258,-0.2905743,0.01124763,-0.001955986,0.0005950928,0.7060384,-0.4580306,0.4163893,0.3439972
-0.04312133,-0.02307129,0.0135498,-0.02846336,-0.02000904,0.002883911,0.893876,-0.1202579,-0.3085745,0.01328754,-0.0005130768,-0.001127243,0.705599,-0.4589448,0.4146648,0.3457538
-0.04675292,-0.02502441,0.01483154,-0.02846336,-0.0204668,0.003189087,0.893876,-0.1202579,-0.3085745,0.009620667,-0.002429962,7.629395e-05,0.7051603,-0.4598341,0.4129234,0.3475405
-0.04995726,-0.02700805,0.01583862,-0.02925682,-0.02077198,0.002822876,0.893876,-0.1202579,-0.3085745,0.006368637,-0.004350662,0.000998497,0.7047946,-0.4608327,0.4109827,0.3492493
-0.05230712,-0.02777099,0.01901245,-0.02940941,-0.01967335,0.002944946,0.893876,-0.1202579,-0.3085745,0.003972054,-0.005051613,0.004088402,0.7044182,-0.4618144,0.409064,0.3509526
-0.05288695,-0.02572631,0.01934814,-0.02910423,-0.02019215,0.002731323,0.893876,-0.1202579,-0.3085745,0.00334549,-0.002952576,0.00433445,0.7040551,-0.4627292,0.4071495,0.3526894
-0.05184935,-0.0258789,0.01950073,-0.0297451,-0.02092457,0.002883911,0.893876,-0.1202579,-0.3085745,0.00433445,-0.003047943,0.004392624,0.7036904,-0.4636529,0.405168,0.354472
-0.05419921,-0.02835082,0.02169799,-0.03011131,-0.02122974,0.002639771,0.923876,-0.09625793,-0.3055743,0.001932144,-0.00545311,0.006490707,0.7033845,-0.4645894,0.4031043,0.3562494
-0.05419921,-0.02832031,0.022583,-0.02995872,-0.02122974,0.002914429,0.923876,-0.09625793,-0.3055743,0.001878738,-0.005360603,0.00727272,0.7030581,-0.46549,0.4010412,0.3580421
-0.05593871,-0.02908325,0.02337646,-0.03023338,-0.01973438,0.002822876,0.923876,-0.09625793,-0.3055743,8.869171e-05,-0.006059647,0.007977486,0.7026759,-0.4664408,0.3990417,0.3597846
-0.05776976,-0.0291748,0.02490234,-0.03047752,-0.01836109,0.00328064,0.9028763,-0.1382581,-0.3235745,-0.001773834,-0.00610733,0.00945282,0.702058,-0.4674684,0.3973371,0.3615395
-0.05612181,-0.02770996,0.02444457,-0.03011131,-0.01701832,0.003219604,0.9028763,-0.1382581,-0.3235745,-0.0001678467,-0.004587173,0.008926392,0.7015801,-0.4684267,0.3955061,0.3632306
-0.05422973,-0.02789306,0.02249145,-0.03005028,-0.01659107,0.003372192,0.9028763,-0.1382581,-0.3235745,0.001683235,-0.004713058,0.006913185,0.7010639,-0.4694264,0.393711,0.3648831
-0.0527954,-0.028656,0.02120971,-0.03005028,-0.01695728,0.003158569,0.8848761,-0.1292581,-0.3085745,0.003074646,-0.005411148,0.005572319,0.7005523,-0.4704564,0.3918802,0.3665062
-0.05017089,-0.0296936,0.02182006,-0.0302639,-0.01814747,0.003158569,0.8848761,-0.1292581,-0.3085745,0.005649567,-0.006378174,0.006111145,0.7000967,-0.4714709,0.3899264,0.3681535
-0.04864501,-0.02957153,0.02319335,-0.03017235,-0.01887989,0.00340271,0.8848761,-0.1292581,-0.3085745,0.007122993,-0.006185532,0.007401466,0.6996835,-0.472425,0.3879099,0.3698422
-0.04934691,-0.02999877,0.02294921,-0.03047752,-0.0192461,0.003005981,0.9058762,-0.072258,-0.3355743,0.006365776,-0.006538391,0.007074356,0.6992675,-0.4734033,0.3858551,0.3715237
-0.05209349,-0.03018188,0.02322387,-0.03005028,-0.01933765,0.002700806,0.9058762,-0.072258,-0.3355743,0.003563881,-0.006648064,0.007266045,0.6988561,-0.4743554,0.3838191,0.3731887
-0.05358886,-0.02828979,0.02243041,-0.03020287,-0.01839161,0.002792358,0.9058762,-0.072258,-0.3355743,0.002020836,-0.00469017,0.006402016,0.6983657,-0.4753187,0.3818898,0.3748563
-0.05569457,-0.02896118,0.02325439,-0.03023338,-0.01747608,0.002639771,0.9028763,-0.09925812,-0.3385745,-0.0001306534,-0.005295753,0.007163048,0.6978469,-0.4763032,0.3800031,0.3764867
-0.05511473,-0.0302124,0.02621459,-0.0307827,-0.01710987,0.002029419,0.9028763,-0.09925812,-0.3385745,0.0003967285,-0.00647068,0.0100565,0.6973667,-0.4773079,0.3780289,0.3780882
-0.05569457,-0.02920532,0.02801513,-0.03069115,-0.01720142,0.001266479,0.9028763,-0.09925812,-0.3385745,-0.0002212524,-0.00539875,0.0118227,0.6967064,-0.4784057,0.3762742,0.379665
-0.05480956,-0.02883911,0.02783202,-0.0307827,-0.01759815,0.0006561279,0.8908762,-0.072258,-0.3595743,0.0006065369,-0.00494957,0.01156235,0.6962845,-0.4793766,0.3742194,0.381242
-0.05581664,-0.02957153,0.02816772,-0.03105736,-0.01866627,0.0001983643,0.8908762,-0.072258,-0.3595743,-0.0004463196,-0.005606651,0.01185417,0.6956734,-0.4804753,0.3723314,0.3828197
-0.05462645,-0.02984619,0.0270996,-0.03145409,-0.0192461,-7.43866e-05,0.8908762,-0.072258,-0.3595743,0.0006780624,-0.005786896,0.01070213,0.6952764,-0.481475,0.3701358,0.3844106
-0.05529784,-0.02984619,0.02700805,-0.03145409,-0.01869678,-0.0002880096,0.8818079,-0.09625793,-0.3834964,-5.817413e-05,-0.005690575,0.01053429,0.6948556,-0.4824934,0.3679709,0.3859698
-0.05450438,-0.02941894,0.02713012,-0.03154564,-0.01823902,-0.0008068085,0.8818079,-0.09625793,-0.3834964,0.0006694794,-0.005164146,0.01058292,0.6944307,-0.4835324,0.3658055,0.3874895
-0.05313109,-0.02886962,0.02786254,-0.03133202,-0.01790333,-0.0009593964,0.8818079,-0.09625793,-0.3834964,0.001976967,-0.004514694,0.01124096,0.694019,-0.4845495,0.3636425,0.3889896
-0.05282592,-0.02850341,0.02774047,-0.03154564,-0.01808643,-0.001081467,0.8998078,-0.1112579,-0.3984964,0.002215385,-0.004048347,0.01104546,0.6935983,-0.4855684,0.3614638,0.3904971
-0.05044555,-0.0291748,0.02526855,-0.03087425,-0.01915455,-0.001142502,0.8998078,-0.1112579,-0.3984964,0.004525185,-0.004613876,0.008495331,0.6932099,-0.4865766,0.3592435,0.3919779
-0.0500183,-0.02963256,0.02359008,-0.03084373,-0.01970387,-0.001508713,0.8998078,-0.1112579,-0.3984964,0.004878998,-0.00496006,0.006741524,0.6928209,-0.4876112,0.356993,0.3934332
-0.04956054,-0.02874755,0.02297973,-0.03056908,-0.01949024,-0.001783371,0.8908078,-0.1112579,-0.3894961,0.005264282,-0.003964424,0.006058693,0.692425,-0.4886392,0.3547701,0.3948629
-0.05035399,-0.02999877,0.02359008,-0.0300808,-0.01985645,-0.00230217,0.8908078,-0.1112579,-0.3894961,0.004394531,-0.005099297,0.006591797,0.692076,-0.4896466,0.3525047,0.3962531
-0.04946898,-0.02954101,0.02346801,-0.03041649,-0.02049732,-0.00254631,0.8908078,-0.1112579,-0.3894961,0.005200386,-0.004522324,0.006389618,0.6917328,-0.4906507,0.3501862,0.3976636
-0.04989623,-0.02886962,0.0229187,-0.02971458,-0.02116871,-0.002820969,0.8578079,-0.057258,-0.3744962,0.004692078,-0.003734589,0.005754471,0.6914176,-0.4916003,0.3478677,0.3990712
-0.05029296,-0.02890014,0.02301025,-0.02980614,-0.02144337,-0.003034592,0.8578079,-0.057258,-0.3744962,0.004214287,-0.003646851,0.005759239,0.6911029,-0.492546,0.3455281,0.4004803
-0.05270385,-0.0298767,0.02334594,-0.03005028,-0.02071095,-0.002820969,0.8578079,-0.057258,-0.3744962,0.001724243,-0.004507065,0.006018639,0.6907375,-0.4935229,0.3432369,0.4018759
-0.05462645,-0.02911376,0.02349853,-0.02959251,-0.01884937,-0.002973557,0.8938076,-0.09025788,-0.4164963,-0.0002698898,-0.003632545,0.006110191,0.6903197,-0.4945163,0.3410865,0.4032011
-0.05722044,-0.02954101,0.02514648,-0.02940941,-0.01649952,-0.003095627,0.8938076,-0.09025788,-0.4164963,-0.002920151,-0.003955841,0.007735252,0.6897327,-0.4956359,0.339196,0.4044239
-0.05612181,-0.0293579,0.02548217,-0.02892113,-0.01463795,-0.003095627,0.8938076,-0.09025788,-0.4164963,-0.001882553,-0.00366497,0.008038521,0.6892418,-0.4966814,0.3372728,0.4055846
-0.0534973,-0.028656,0.02252197,-0.02892113,-0.01433277,-0.002973557,0.8638077,-0.04225799,-0.4374963,0.0006828308,-0.002853394,0.005056381,0.688705,-0.4977776,0.33539,0.4067121
-0.05178832,-0.02883911,0.02099609,-0.0292263,-0.01479053,-0.002973557,0.8638077,-0.04225799,-0.4374963,0.00233078,-0.002923965,0.003510475,0.6881544,-0.4989045,0.3334706,0.4078398
-0.04891967,-0.02896118,0.02096557,-0.02940941,-0.01579762,-0.003248215,0.8638077,-0.04225799,-0.4374963,0.005132675,-0.002925873,0.003450394,0.6876479,-0.5000166,0.3314467,0.4089803
-0.0484619,-0.02877807,0.0236206,-0.02916527,-0.01683521,-0.003889084,0.8518078,-0.07525788,-0.4164963,0.005515099,-0.002619743,0.006057739,0.6872326,-0.5010411,0.3293163,0.4101438
-0.04940795,-0.02679443,0.02090454,-0.02916527,-0.01704884,-0.003797531,0.8518078,-0.07525788,-0.4164963,0.004500389,-0.0005197525,0.003302574,0.6867518,-0.5020758,0.3272585,0.4113287
-0.04940795,-0.02835082,0.0208435,-0.029562,-0.01720142,-0.003889084,0.8518078,-0.07525788,-0.4164963,0.004428864,-0.001954079,0.003204346,0.6862652,-0.5031477,0.3251526,0.4124992
-0.0493164,-0.02780151,0.01968383,-0.02934837,-0.01723194,-0.003553391,0.8728079,-0.06325806,-0.4284964,0.004451752,-0.00128746,0.002011299,0.6857503,-0.5042095,0.3230883,0.4136791
-0.05065917,-0.02694702,0.01812744,-0.02943993,-0.01692677,-0.003980637,0.8728079,-0.06325806,-0.4284964,0.003043175,-0.0003166199,0.0004310608,0.6851917,-0.5053091,0.3210719,0.414831
-0.05139159,-0.0265808,0.01657104,-0.02950096,-0.01625538,-0.003644943,0.8728079,-0.06325806,-0.4284964,0.002250671,0.0001630783,-0.00113678,0.6845661,-0.5064452,0.3191367,0.4159697
-0.05209349,-0.02612304,0.01589965,-0.02977562,-0.01570606,-0.003889084,0.8578079,-0.04225799,-0.4434961,0.001491547,0.0007333755,-0.001810074,0.6838998,-0.5076205,0.3172372,0.4170842
-0.05169677,-0.02767944,0.01608276,-0.02959251,-0.01488209,-0.004133224,0.8578079,-0.04225799,-0.4434961,0.001830101,-0.0007038116,-0.001623154,0.6832387,-0.5088319,0.3153441,0.4181254
-0.05181884,-0.02590942,0.01498413,-0.02907372,-0.01405811,-0.0044384,0.8578079,-0.04225799,-0.4434961,0.001654625,0.001180649,-0.002708435,0.6825534,-0.5100417,0.3135438,0.4191229
-0.05139159,-0.02508544,0.01196289,-0.02873802,-0.01363087,-0.004499435,0.8578079,-0.04225799,-0.4434961,0.00203228,0.002118111,-0.00570488,0.6818211,-0.5112929,0.3118195,0.4200749
-0.0529785,-0.02450561,0.008117672,-0.02824974,-0.01250172,-0.00431633,0.8578079,-0.04225799,-0.4434961,0.0004062653,0.00280571,-0.009503365,0.6809967,-0.5126134,0.3102526,0.4209613
-0.05368041,-0.02563476,0.006683348,-0.02812767,-0.01140308,-0.004072189,0.8578079,-0.04225799,-0.4434961,-0.000330925,0.001784325,-0.0108757,0.6801193,-0.5139956,0.3087628,0.421788
-0.05245971,-0.02615356,0.007598875,-0.02751732,-0.01036549,-0.00431633,0.8608078,-0.03625793,-0.4464963,0.0008544922,0.001375198,-0.009895325,0.6792723,-0.5153695,0.307301,0.4225423
-0.0505371,-0.02633666,0.007690428,-0.02684593,-0.009999275,-0.004133224,0.8608078,-0.03625793,-0.4464963,0.00274086,0.001301765,-0.009741783,0.6784518,-0.5167127,0.305858,0.4232654
-0.05044555,-0.02642822,0.007507322,-0.02605247,-0.009266853,-0.003980637,0.8608078,-0.03625793,-0.4464963,0.00279808,0.001316071,-0.009858131,0.6776357,-0.5180349,0.3044836,0.4239459
-0.05059813,-0.02780151,0.007995602,-0.02535057,-0.009205818,-0.003858566,0.8518078,-0.03025787,-0.4524963,0.00261116,4.959106e-05,-0.009306908,0.6768535,-0.5193239,0.3031124,0.4245993
-0.05093383,-0.02862548,0.008300778,-0.0247097,-0.009114265,-0.003797531,0.8518078,-0.03025787,-0.4524963,0.002239227,-0.0006694794,-0.008940697,0.6760966,-0.5205815,0.3017557,0.42523
-0.05252074,-0.02981567,0.009368893,-0.02394676,-0.00880909,-0.004011154,0.8518078,-0.03025787,-0.4524963,0.0006160736,-0.001753807,-0.007814407,0.6753772,-0.5218036,0.3004185,0.4258206
-0.05310057,-0.03082275,0.01205444,-0.02355003,-0.009083748,-0.003828049,0.8188663,-0.01522858,-0.4705743,-3.814697e-06,-0.00265789,-0.00508213,0.6747125,-0.5229465,0.2990467,0.4264361
-0.05291747,-0.03109741,0.01330566,-0.02278709,-0.01045704,-0.003767014,0.8188663,-0.01522858,-0.4705743,0.0001354218,-0.002832413,-0.003803253,0.6741263,-0.5239786,0.2976107,0.4270993
-0.05212401,-0.03149413,0.01483154,-0.02220726,-0.01216602,-0.003767014,0.8188663,-0.01522858,-0.4705743,0.0008773804,-0.003129005,-0.002270699,0.6736302,-0.5248964,0.2960723,0.4278225
-0.05172728,-0.03311156,0.01495361,-0.02184105,-0.01469898,-0.003980637,0.8398663,-0.01822876,-0.4585742,0.00121212,-0.004640579,-0.002164841,0.6732247,-0.5257334,0.2943746,0.4286031
-0.05120848,-0.03384399,0.01504516,-0.02159691,-0.01668262,-0.003583908,0.8398663,-0.01822876,-0.4585742,0.001664162,-0.005268097,-0.002104759,0.6728664,-0.5264891,0.2925802,0.4294652
-0.0550537,-0.03570556,0.01504516,-0.02181053,-0.01796436,-0.003400803,0.8398663,-0.01822876,-0.4585742,-0.002248764,-0.007026672,-0.002141953,0.6724969,-0.5272292,0.2907399,0.4303841
-0.05636595,-0.03680419,0.01547241,-0.02162743,-0.0185442,-0.002820969,0.8368664,-0.006228638,-0.4705743,-0.003622055,-0.008045197,-0.001769066,0.672129,-0.527791,0.2889651,0.4314634
-0.05789183,-0.03787231,0.01647949,-0.02104759,-0.01921558,-0.002454758,0.8368664,-0.006228638,-0.4705743,-0.005209923,-0.009038925,-0.0008239746,0.671784,-0.5282903,0.2871883,0.4325737
-0.05987547,-0.03741454,0.01577758,-0.02052879,-0.01866627,-0.002058029,0.8368664,-0.006228638,-0.4705743,-0.00725174,-0.008509636,-0.001585007,0.6714316,-0.5287701,0.2854715,0.4336688
-0.05993651,-0.03833007,0.01437378,-0.01994896,-0.01775074,-0.001447678,0.8608664,0.02377075,-0.4855743,-0.00736618,-0.009361267,-0.003043175,0.6710595,-0.5292348,0.283844,0.4347437
-0.06063841,-0.03839111,0.01345825,-0.01946068,-0.01729298,-0.0009593964,0.8608664,0.02377075,-0.4855743,-0.008117676,-0.009361267,-0.004012108,0.6706938,-0.5296771,0.2822747,0.4358128
-0.06179808,-0.03894042,0.01239013,-0.01912498,-0.0159502,-0.0005931854,0.8608664,0.02377075,-0.4855743,-0.00932312,-0.00985527,-0.005123138,0.6702831,-0.5301369,0.2807989,0.4368376
-0.0618286,-0.03961181,0.01217651,-0.01918602,-0.01488209,-0.0001354218,0.8068665,0.005770569,-0.4735742,-0.009393692,-0.01047421,-0.00537014,0.6698296,-0.5306238,0.2793933,0.4378423
-0.06082152,-0.03997802,0.01217651,-0.01924706,-0.01390553,7.629395e-05,0.8068665,0.005770569,-0.4735742,-0.008423805,-0.01078987,-0.005395889,0.6693434,-0.53114,0.2780432,0.4388183
-0.06170653,-0.03906249,0.01107788,-0.01955223,-0.01305103,0.0003814697,0.8068665,0.005770569,-0.4735742,-0.009342194,-0.009824753,-0.006511688,0.6688143,-0.5316923,0.2767379,0.4397803
-0.06240843,-0.03759765,0.009948727,-0.02034569,-0.01167774,0.0004425049,0.8308664,0.005770569,-0.4795743,-0.01007271,-0.008308411,-0.007642746,0.6682199,-0.532328,0.2754776,0.440705
-0.06405638,-0.03710937,0.01040649,-0.02031517,-0.01064014,0.0003509521,0.8308664,0.005770569,-0.4795743,-0.01174831,-0.007768631,-0.00717926,0.6676059,-0.5329973,0.2742667,0.441581
-0.06146239,-0.03591918,0.0100708,-0.02162743,-0.009633064,0.0002593994,0.8308664,0.005770569,-0.4795743,-0.009179115,-0.006523132,-0.007494926,0.6669186,-0.5337676,0.2730582,0.4424374
-0.06317137,-0.03506469,0.01177978,-0.02254295,-0.008656502,0.0002288818,0.8278665,0.01477081,-0.4615744,-0.01091003,-0.005609512,-0.005754471,0.6661724,-0.5346162,0.2718664,0.4432701
-0.06463622,-0.03237914,0.01333618,-0.02358055,-0.006978035,0.0001068115,0.8278665,0.01477081,-0.4615744,-0.012393,-0.002861977,-0.00414753,0.6653509,-0.5355749,0.2707188,0.4440481
-0.06881712,-0.02975463,0.01583862,-0.02364159,-0.006428719,-1.335144e-05,0.8278665,0.01477081,-0.4615744,-0.01659107,-0.0001745224,-0.001589775,0.6645175,-0.536556,0.2695911,0.4447972
-0.06649779,-0.02804565,0.01626586,-0.02519798,-0.005299568,-0.0001659393,0.8308664,0.03577057,-0.4795743,-0.01428604,0.001603127,-0.001091003,0.6635998,-0.5376554,0.2684606,0.4455228
-0.06689452,-0.02606201,0.019104,-0.02647972,-0.00514698,0.0003814697,0.8308664,0.03577057,-0.4795743,-0.01469517,0.003653526,0.001826286,0.6626052,-0.5388114,0.2673158,0.4462944
-0.06298827,-0.02407836,0.02047729,-0.0274868,-0.006825447,-0.0001659393,0.8308664,0.03577057,-0.4795743,-0.01080704,0.005710602,0.003270149,0.6616192,-0.53997,0.266028,0.4471256
-0.05963133,-0.02182006,0.02117919,-0.02834129,-0.008748055,0.000289917,0.7828665,0.05677063,-0.5125744,-0.007454872,0.008004189,0.004019737,0.6605568,-0.5409113,0.26483,0.4482684
-0.05944823,-0.02105713,0.02114868,-0.02950096,-0.01118946,0.0001678467,0.7828665,0.05677063,-0.5125744,-0.007282257,0.008803368,0.004022598,0.6594927,-0.5418175,0.2634745,0.4495377
-0.05413817,-0.01779174,0.01898193,-0.02983665,-0.01408863,0.0003509521,0.7828665,0.05677063,-0.5125744,-0.001988411,0.01210499,0.001868248,0.658455,-0.5426401,0.2619766,0.4509399
-0.05490111,-0.01660156,0.01895141,-0.0300808,-0.01601124,0.0006866455,0.8308664,0.03577057,-0.5125744,-0.002767563,0.01332378,0.00183773,0.6574142,-0.5433848,0.2604182,0.4524618
-0.05484007,-0.01373291,0.01589965,-0.02977562,-0.01686573,0.0009002686,0.8308664,0.03577057,-0.5125744,-0.002717972,0.01621246,-0.001214027,0.6563276,-0.5441065,0.2589153,0.4540318
-0.05648802,-0.01193237,0.01663207,-0.02882957,-0.01741505,0.001663208,0.8308664,0.03577057,-0.5125744,-0.004370689,0.01801586,-0.0004911423,0.6552438,-0.5447065,0.2574943,0.4556828
-0.05813597,-0.01190185,0.01712036,-0.02782249,-0.0168047,0.002212524,0.7918665,0.03577057,-0.5035742,-0.006017685,0.0180397,-1.335144e-05,0.6541591,-0.545253,0.2561778,0.4573267
-0.0602722,-0.01092529,0.0180664,-0.02647972,-0.01653004,0.002639771,0.7918665,0.03577057,-0.5035742,-0.008148193,0.01899529,0.000916481,0.6530942,-0.5456997,0.2549745,0.4589854
-0.06442259,-0.01013183,0.02038574,-0.02467918,-0.01561451,0.003616333,0.7918665,0.03577057,-0.5035742,-0.01228142,0.01974678,0.003213882,0.65204,-0.5460098,0.2539652,0.4606718
-0.0673828,-0.009887693,0.02050781,-0.02321434,-0.01466846,0.003768921,0.8188663,0.06877075,-0.4855743,-0.0152626,0.02002144,0.003325462,0.6512237,-0.5465745,0.2525769,0.4619185
-0.07073973,-0.01068115,0.02160644,-0.02214622,-0.01372242,0.003890991,0.8188663,0.06877075,-0.4855743,-0.01863766,0.01925564,0.004416466,0.6504266,-0.5471148,0.2512771,0.4631093
-0.07379149,-0.01223755,0.02401733,-0.02095604,-0.01338673,0.004226685,0.8188663,0.06877075,-0.4855743,-0.02170563,0.01772022,0.006816864,0.6496583,-0.5475993,0.2500491,0.4642782
-0.07446288,-0.01141357,0.02697753,-0.01979637,-0.01329517,0.003829956,0.8248761,0.0417804,-0.5125744,-0.02239418,0.01856613,0.00976181,0.6489484,-0.5480353,0.2488492,0.4653998
-0.07284544,-0.01220703,0.0293579,-0.01906395,-0.01396656,0.003494263,0.8248761,0.0417804,-0.5125744,-0.02079773,0.01779461,0.01211834,0.6482916,-0.5484158,0.2476273,0.4665175
-0.07266234,-0.01104736,0.03045654,-0.01836205,-0.01457691,0.003433228,0.8248761,0.0417804,-0.5125744,-0.02063656,0.01897526,0.0131855,0.6476758,-0.5487391,0.2463967,0.4676428
-0.0736389,-0.01092529,0.02856445,-0.01790428,-0.01488209,0.003005981,0.8248761,0.0417804,-0.5125744,-0.02163887,0.01912117,0.01125717,0.647098,-0.5490353,0.2451487,0.4687497
-0.07354735,-0.01101684,0.0276184,-0.01778221,-0.01448536,0.002883911,0.8248761,0.0417804,-0.5125744,-0.02157211,0.01905346,0.01027775,0.6465201,-0.5493401,0.2439188,0.4698302
-0.07174681,-0.01190185,0.0265808,-0.017416,-0.01460743,0.002456665,0.8248761,0.0417804,-0.5125744,-0.01979923,0.01819515,0.009203911,0.6459733,-0.5496289,0.2426774,0.4708865
-0.06851195,-0.01104736,0.02569579,-0.01708031,-0.01500416,0.002059937,0.8278763,0.02978058,-0.5305743,-0.01659489,0.01907825,0.008278847,0.6454601,-0.5498924,0.241411,0.4719323
-0.06469725,-0.00967407,0.02304077,-0.01714134,-0.01598072,0.00163269,0.8278763,0.02978058,-0.5305743,-0.01281548,0.02048492,0.005576134,0.6449757,-0.55013,0.2400758,0.4729976
-0.06124876,-0.01046753,0.02096557,-0.01708031,-0.01729298,0.001205444,0.8278763,0.02978058,-0.5305743,-0.009368896,0.01965427,0.003429413,0.6443523,-0.5500285,0.2391069,0.4744538
-0.05999754,-0.01068115,0.01760864,-0.01683617,-0.01887989,0.0006866455,0.8158762,0.03578033,-0.5515744,-0.008126259,0.01941109,-2.861023e-06,0.6437496,-0.5499405,0.2380572,0.4758995
-0.05960082,-0.01199341,0.01565551,-0.01680565,-0.01967335,0.0005340576,0.8158762,0.03578033,-0.5515744,-0.007741928,0.01807594,-0.002029419,0.6431511,-0.5498814,0.2369523,0.4773264
-0.06021117,-0.01199341,0.01324463,-0.01646996,-0.0197649,0.0001678467,0.8158762,0.03578033,-0.5515744,-0.008363724,0.01805592,-0.004507065,0.6425396,-0.5498606,0.2358702,0.4787078
-0.06082152,-0.01159668,0.01168823,-0.01683617,-0.01942921,0.0001068115,0.8037393,0.0626828,-0.5692911,-0.008981705,0.01843357,-0.006119728,0.6418762,-0.5498998,0.2348181,0.480068
-0.06002806,-0.01165771,0.01126098,-0.01646996,-0.01884937,1.525879e-05,0.8037393,0.0626828,-0.5692911,-0.008195877,0.01835442,-0.00660038,0.6412203,-0.5499525,0.2337958,0.4813813
-0.0602722,-0.01306152,0.009979244,-0.01640892,-0.01826954,-0.0002269745,0.8037393,0.0626828,-0.5692911,-0.008448601,0.01693916,-0.00792408,0.6405537,-0.5500708,0.2327833,0.4826227
-0.05926512,-0.01431274,0.01110839,-0.01616478,-0.01845264,-0.00041008,0.7827396,0.06568268,-0.5512912,-0.007454872,0.01568222,-0.006844521,0.639939,-0.5501621,0.2317166,0.4838459
-0.05899046,-0.01513672,0.01013183,-0.01665306,-0.01799488,-0.0008983612,0.7827396,0.06568268,-0.5512912,-0.007195473,0.01486111,-0.007861137,0.6393062,-0.550332,0.2306241,0.4850097
-0.05963133,-0.01574707,0.01065063,-0.01686668,-0.01842213,-0.001264572,0.7827396,0.06568268,-0.5512912,-0.007855415,0.01425743,-0.007385254,0.6386889,-0.5504984,0.2294806,0.4861751
-0.05966185,-0.01696777,0.01162719,-0.01750755,-0.01875782,-0.002058029,0.8067395,0.05068268,-0.5362912,-0.007911682,0.01305389,-0.006453514,0.6380994,-0.5506893,0.2282338,0.4873186
-0.06094359,-0.01803588,0.01193237,-0.01839256,-0.01942921,-0.00230217,0.8067395,0.05068268,-0.5362912,-0.009222984,0.01200962,-0.006194115,0.6374908,-0.5509081,0.2269072,0.488486
-0.0613098,-0.0185852,0.01055908,-0.01909447,-0.02019215,-0.002820969,0.8067395,0.05068268,-0.5362912,-0.00962162,0.01149082,-0.007609367,0.6368637,-0.5511765,0.2255034,0.4896499
-0.06137083,-0.01974487,0.01184082,-0.01982689,-0.02055836,-0.003400803,0.7947394,0.06868286,-0.5392911,-0.00972271,0.01037216,-0.006373405,0.6362557,-0.5514604,0.2239994,0.4908095
-0.06170653,-0.01971435,0.01177978,-0.02068138,-0.02113819,-0.003889084,0.7947394,0.06868286,-0.5392911,-0.01010132,0.01044846,-0.006479263,0.6356318,-0.5517721,0.2224215,0.4919838
-0.06072997,-0.01998901,0.01104736,-0.02156639,-0.02217579,-0.004377365,0.7947394,0.06868286,-0.5392911,-0.009173393,0.01022816,-0.007258415,0.6350032,-0.5521117,0.2207287,0.4931754
-0.06097411,-0.02011108,0.01107788,-0.02208519,-0.02241993,-0.004682541,0.7857394,0.0926828,-0.563291,-0.009468079,0.01016521,-0.007273674,0.6343628,-0.5524712,0.2189936,0.4943691
-0.06237791,-0.02078247,0.01040649,-0.02266502,-0.02211475,-0.004682541,0.7857394,0.0926828,-0.563291,-0.01092052,0.009553909,-0.0079813,0.6336712,-0.5528914,0.2172654,0.4955475
-0.06106566,-0.01998901,0.008789059,-0.02275658,-0.02177906,-0.004926682,0.7857394,0.0926828,-0.563291,-0.009654999,0.01041031,-0.009627342,0.6329591,-0.5533548,0.2155505,0.4966878
-0.0606079,-0.0196228,0.008331295,-0.02300072,-0.02113819,-0.005109787,0.7947394,0.06868286,-0.5302911,-0.009243011,0.01084137,-0.01010609,0.632224,-0.5538597,0.2138547,0.4977931
-0.05947874,-0.02148437,0.007629393,-0.02321434,-0.02083302,-0.005170822,0.7947394,0.06868286,-0.5302911,-0.008163452,0.00905323,-0.01082325,0.6314878,-0.5544187,0.2121199,0.4988465
-0.05868529,-0.02120971,0.00741577,-0.02370262,-0.02071095,-0.004804611,0.7947394,0.06868286,-0.5302911,-0.007416725,0.009399414,-0.01104832,0.630713,-0.5549973,0.2103843,0.4999171
-0.05862425,-0.02047729,0.006927488,-0.02376366,-0.02049732,-0.004865646,0.7737393,0.1106827,-0.5812912,-0.007400513,0.01020241,-0.01154423,0.6299186,-0.5555874,0.2086713,0.5009801
-0.05831908,-0.02029419,0.006286619,-0.02422142,-0.01988697,-0.004865646,0.7737393,0.1106827,-0.5812912,-0.007138252,0.01045799,-0.01218414,0.6290837,-0.5562309,0.206975,0.5020177
-0.05850218,-0.02081298,0.006958006,-0.02406883,-0.01936817,-0.004652023,0.7737393,0.1106827,-0.5812912,-0.007362366,0.01000977,-0.0115099,0.6282458,-0.5568713,0.2053066,0.503041
-0.057312,-0.02075195,0.007171629,-0.02425194,-0.01851368,-0.004468918,0.7827396,0.1196829,-0.5902911,-0.006212234,0.01014137,-0.01128674,0.6273893,-0.5575398,0.203663,0.5040366
-0.05624388,-0.02020263,0.007751463,-0.02412987,-0.01799488,-0.004255295,0.7827396,0.1196829,-0.5902911,-0.005181313,0.0107584,-0.01069736,0.6265315,-0.5581955,0.2020489,0.5050265
-0.05661009,-0.02072143,0.008758541,-0.02376366,-0.01793385,-0.004285812,0.7827396,0.1196829,-0.5902911,-0.005586624,0.01030731,-0.009684563,0.6256995,-0.5588171,0.2004385,0.5060112
-0.05548094,-0.02182006,0.009368893,-0.02425194,-0.01878834,-0.004163742,0.7767395,0.09868286,-0.578291,-0.004502296,0.009281158,-0.009075165,0.6248782,-0.5594204,0.1987336,0.507031
-0.0552368,-0.02124023,0.01055908,-0.02406883,-0.01991749,-0.003828049,0.7767395,0.09868286,-0.578291,-0.004303932,0.00992775,-0.007899284,0.6240782,-0.5599304,0.196995,0.5081306
-0.05609129,-0.02108764,0.01028442,-0.02397728,-0.02007008,-0.003797531,0.7767395,0.09868286,-0.578291,-0.005203247,0.01014519,-0.008188248,0.6232659,-0.5604325,0.1952717,0.5092379
-0.05694579,-0.02172851,0.01086425,-0.02385521,-0.0204668,-0.003889084,0.7497394,0.1196829,-0.6202911,-0.006104469,0.009569168,-0.007626534,0.6224684,-0.560907,0.193527,0.5103558
-0.05612181,-0.02218628,0.013031,-0.02330589,-0.02101612,-0.003278732,0.7497394,0.1196829,-0.6202911,-0.005329132,0.009171486,-0.00549221,0.6217142,-0.5612777,0.1917681,0.51153
-0.05496214,-0.02145385,0.01434326,-0.02333641,-0.02208424,-0.00318718,0.7497394,0.1196829,-0.6202911,-0.00422287,0.009962082,-0.004226685,0.620989,-0.5615659,0.1899496,0.5127717
-0.05520628,-0.02221679,0.01440429,-0.02306175,-0.02309132,-0.00330925,0.7497394,0.1196829,-0.6052911,-0.004524231,0.009259224,-0.004220009,0.620294,-0.5618079,0.1880792,0.5140356
-0.05541991,-0.02340698,0.01516723,-0.02306175,-0.02412891,-0.002759933,0.7497394,0.1196829,-0.6052911,-0.004797935,0.008128166,-0.003520966,0.6196042,-0.5619946,0.1861599,0.5153605
-0.05593871,-0.02435302,0.0158081,-0.02278709,-0.02489185,-0.002576828,0.7497394,0.1196829,-0.6052911,-0.005378723,0.007239342,-0.002950668,0.6189348,-0.5621297,0.1842099,0.5167164
-0.05474852,-0.02529907,0.01623535,-0.02257347,-0.02559376,-0.002363205,0.7377396,0.1466827,-0.608291,-0.004255295,0.006353378,-0.002602577,0.6182944,-0.5622197,0.1822082,0.518093
-0.05578612,-0.02526855,0.01623535,-0.02217674,-0.02562428,-0.00230217,0.7377396,0.1466827,-0.608291,-0.005358696,0.006440163,-0.002682686,0.6176529,-0.5622885,0.1802404,0.51947
-0.05538939,-0.02603149,0.01690673,-0.02235985,-0.02580738,-0.001752853,0.7377396,0.1466827,-0.608291,-0.005026817,0.00573349,-0.002092361,0.6169968,-0.5623407,0.1782572,0.5208755
-0.05398558,-0.02633666,0.01602172,-0.0219326,-0.02559376,-0.001783371,0.7497101,0.1406339,-0.6201739,-0.003689766,0.005485535,-0.003056526,0.6163559,-0.5623995,0.1762816,0.5222413
-0.05432128,-0.02719116,0.01733398,-0.02156639,-0.02577686,-0.001264572,0.7497101,0.1406339,-0.6201739,-0.004092216,0.004685402,-0.001830101,0.6157269,-0.5624047,0.1743156,0.5236357
-0.05371093,-0.02758789,0.01629638,-0.02159691,-0.02528858,-0.0007152557,0.7497101,0.1406339,-0.6201739,-0.003545761,0.004341125,-0.002944946,0.6150579,-0.5624472,0.1723872,0.5250129
-0.053833,-0.02841186,0.0163269,-0.0212307,-0.0246172,-0.00041008,0.7497101,0.1406339,-0.6201739,-0.003728867,0.003569603,-0.002987862,0.6143835,-0.5625011,0.1705056,0.5263575
-0.0543518,-0.02947997,0.01611328,-0.02116966,-0.02406788,-0.0002269745,0.7497101,0.1406339,-0.6201739,-0.004306793,0.002552986,-0.003268242,0.6136921,-0.5625862,0.1686504,0.5276691
-0.0540161,-0.02960205,0.01724243,-0.02062035,-0.02303028,0.0004730225,0.7497101,0.1406339,-0.6201739,-0.004025459,0.002476692,-0.002203941,0.6129963,-0.5626515,0.1668826,0.5289686
-0.05352782,-0.03045654,0.01623535,-0.02043724,-0.02269459,0.0008392334,0.7407101,0.1256339,-0.6291739,-0.00358963,0.001667976,-0.003270149,0.6122828,-0.562745,0.1651382,0.5302414
-0.05303954,-0.03057861,0.01638793,-0.02046776,-0.02211475,0.001083374,0.7407101,0.1256339,-0.6291739,-0.003151894,0.001591682,-0.003172874,0.6115538,-0.5628548,0.1634209,0.5314965
-0.05325316,-0.03262328,0.01763915,-0.02022362,-0.02144337,0.00151062,0.7407101,0.1256339,-0.6291739,-0.003416061,-0.0004072189,-0.00197506,0.6108343,-0.5629657,0.161721,0.532725
-0.0534973,-0.03308105,0.01840209,-0.02025414,-0.02101612,0.001693726,0.7227103,0.1796341,-0.6291739,-0.003709793,-0.0008201599,-0.001263618,0.6101069,-0.5630791,0.1600389,0.5339452
-0.05303954,-0.03338622,0.01992797,-0.02013206,-0.0208025,0.001968384,0.7227103,0.1796341,-0.6291739,-0.003302574,-0.001081467,0.0002069473,0.6093926,-0.5631579,0.1583626,0.5351762
-0.05322265,-0.03503417,0.01943969,-0.02040672,-0.02068043,0.002487183,0.7227103,0.1796341,-0.6291739,-0.003534317,-0.002684593,-0.0003318787,0.6086438,-0.5632736,0.1566791,0.5364006
-0.05258178,-0.03634643,0.02069091,-0.02074242,-0.02022266,0.003036499,0.7167102,0.158634,-0.6291739,-0.002942085,-0.003952026,0.0008707047,0.6078802,-0.5633978,0.154986,0.5376264
-0.05142211,-0.0375061,0.02047729,-0.02058983,-0.01994801,0.00328064,0.7167102,0.158634,-0.6291739,-0.001832962,-0.005063057,0.0006113052,0.6071229,-0.563534,0.153286,0.5388253
-0.04959105,-0.03839111,0.022583,-0.02132225,-0.02016163,0.003616333,0.7167102,0.158634,-0.6291739,-5.722046e-05,-0.005896568,0.002664566,0.6063695,-0.5636451,0.1515054,0.5400596
-0.04705809,-0.03985595,0.02420043,-0.02168846,-0.0208025,0.003890991,0.7077103,0.1496341,-0.6201739,0.002412796,-0.007303238,0.004220963,0.6056479,-0.5637116,0.1496188,0.5413243
-0.04632568,-0.04010009,0.02416991,-0.02202415,-0.02196217,0.004318237,0.7077103,0.1496341,-0.6201739,0.003080368,-0.007490158,0.00412178,0.6049106,-0.5637397,0.1476695,0.542653
-0.044281,-0.04043578,0.0248413,-0.02284813,-0.02315235,0.00453186,0.7077103,0.1496341,-0.6201739,0.005052567,-0.007762909,0.004715919,0.6041676,-0.5637338,0.1456015,0.5440437
-0.04364013,-0.04165649,0.02334594,-0.02333641,-0.02370167,0.0052948,0.72871,0.1616339,-0.6471741,0.00562191,-0.00892067,0.003148079,0.6033689,-0.5637599,0.1434985,0.54546
-0.04486083,-0.04104614,0.02331542,-0.0240078,-0.02458668,0.005752563,0.72871,0.1616339,-0.6471741,0.004331589,-0.008252144,0.003044128,0.6025079,-0.5637711,0.1413778,0.5469516
-0.04406738,-0.04180907,0.02182006,-0.0247097,-0.02473927,0.006210327,0.72871,0.1616339,-0.6471741,0.005056381,-0.008953094,0.001482964,0.601588,-0.5638388,0.1392241,0.5484448
-0.0455017,-0.04129028,0.02203369,-0.02507591,-0.02412891,0.006820679,0.69871,0.1496341,-0.6291739,0.003561974,-0.008379936,0.001637459,0.6005979,-0.563934,0.1371405,0.5499548
-0.04608154,-0.03955077,0.02053832,-0.02544212,-0.02293873,0.007369995,0.69871,0.1496341,-0.6291739,0.002932549,-0.006593704,0.0001001358,0.5995131,-0.5641067,0.1351702,0.5514469
-0.04736327,-0.03988647,0.01904296,-0.02547264,-0.02162647,0.008132935,0.69871,0.1496341,-0.6291739,0.001612663,-0.00688839,-0.001420975,0.5983471,-0.5643659,0.1333129,0.5528981
-0.04537963,-0.03985595,0.01809692,-0.02547264,-0.0208025,0.00819397,0.6897101,0.203634,-0.6531738,0.003559113,-0.006814003,-0.002385139,0.5971735,-0.56467,0.1314721,0.5542953
-0.04528808,-0.03930663,0.01699829,-0.02611351,-0.02034473,0.008743286,0.6897101,0.203634,-0.6531738,0.003619194,-0.006223679,-0.003491402,0.5959229,-0.5650328,0.1296639,0.5556952
-0.04367065,-0.04074096,0.0173645,-0.02617455,-0.01985645,0.008987427,0.6897101,0.203634,-0.6531738,0.005203247,-0.007612228,-0.003130913,0.5946816,-0.5654116,0.1278327,0.5570621
-0.04388427,-0.04049682,0.01757812,-0.0264492,-0.02025318,0.009536743,0.6627102,0.1916339,-0.6171741,0.004959106,-0.007326126,-0.002924919,0.5934025,-0.5657703,0.1260027,0.5584768
-0.04504394,-0.04000854,0.01824951,-0.02690697,-0.0197649,0.009597778,0.6627102,0.1916339,-0.6171741,0.003771782,-0.006799698,-0.002256393,0.5920839,-0.5661501,0.1242014,0.5598927
-0.04693602,-0.0402832,0.01730346,-0.02687645,-0.01912403,0.01020813,0.6627102,0.1916339,-0.6171741,0.001860619,-0.007041931,-0.003194809,0.5907012,-0.5665767,0.1224846,0.5612978
-0.04733275,-0.04019164,0.01696777,-0.02712059,-0.01891041,0.01036072,0.6747101,0.158634,-0.6591739,0.001447678,-0.006918907,-0.003518105,0.589286,-0.5670258,0.1207829,0.5626984
-0.04812621,-0.04135131,0.01821899,-0.02766991,-0.0185442,0.01036072,0.6747101,0.158634,-0.6591739,0.0006370544,-0.008045197,-0.002252579,0.587849,-0.5674951,0.1190578,0.5640876
-0.04635619,-0.04180907,0.01867675,-0.02821922,-0.01875782,0.01023865,0.6747101,0.158634,-0.6591739,0.002386093,-0.008462906,-0.001781464,0.5864259,-0.5679631,0.1172568,0.5654749
-0.04501342,-0.04135131,0.02069091,-0.02858543,-0.01918507,0.01036072,0.6627102,0.2006339,-0.6801739,0.003703117,-0.007966042,0.0002365112,0.5850149,-0.5683681,0.1154057,0.5669098
-0.04556274,-0.04147338,0.02090454,-0.02913475,-0.01988697,0.01060486,0.6627102,0.2006339,-0.6801739,0.003128052,-0.008049011,0.000451088,0.5835682,-0.5687586,0.1135153,0.5683901
-0.0453186,-0.04067992,0.01922607,-0.02937889,-0.01997852,0.010849,0.6627102,0.2006339,-0.6801739,0.003349304,-0.007219315,-0.001219749,0.5820722,-0.5691798,0.11164,0.569873
-0.04614257,-0.04116821,0.01794433,-0.0297451,-0.01991749,0.01078796,0.6507102,0.1946341,-0.6741739,0.002505302,-0.007668495,-0.002486229,0.5805373,-0.5696519,0.1097577,0.5713317
-0.04455566,-0.03958129,0.01693725,-0.0300808,-0.02043629,0.01075745,0.6507102,0.1946341,-0.6741739,0.004071236,-0.00604248,-0.003479958,0.5789802,-0.5701149,0.1078476,0.5728126
-0.04409789,-0.04055785,0.01596069,-0.03044701,-0.02007008,0.01097107,0.6507102,0.1946341,-0.6741739,0.004508972,-0.006976128,-0.004433632,0.5773905,-0.5706313,0.1059255,0.5742605
-0.04385375,-0.0397644,0.015625,-0.03041649,-0.01988697,0.01115417,0.6417102,0.1796341,-0.6591544,0.004735947,-0.00614357,-0.004745483,0.5757797,-0.5711476,0.1040337,0.5757093
-0.04492187,-0.03836059,0.0151062,-0.03044701,-0.01961231,0.01124573,0.6417102,0.1796341,-0.6591544,0.003656387,-0.004706383,-0.005235672,0.5741279,-0.5716757,0.1022016,0.5771616
-0.04373168,-0.03781127,0.01312255,-0.03056908,-0.019063,0.01115417,0.6417102,0.1796341,-0.6591544,0.00483799,-0.00412178,-0.007181168,0.5724504,-0.5722646,0.1003847,0.578562
-0.04388427,-0.0376892,0.01162719,-0.03066063,-0.01927662,0.01115417,0.6447101,0.2066339,-0.6861545,0.004678726,-0.00396347,-0.008634567,0.5707456,-0.5728761,0.09856483,0.5799526
-0.04470824,-0.0369873,0.01080322,-0.03017235,-0.01912403,0.01075745,0.6447101,0.2066339,-0.6861545,0.00384903,-0.00322628,-0.009414673,0.56905,-0.573487,0.09678461,0.5813136
-0.04495239,-0.03582763,0.01083374,-0.0300808,-0.01921558,0.01063538,0.6447101,0.2066339,-0.6861545,0.003600121,-0.002036095,-0.00934124,0.5673482,-0.5740762,0.0950247,0.5826845
-0.04556274,-0.03613281,0.01043701,-0.02992821,-0.01887989,0.01036072,0.6777103,0.2306339,-0.6861545,0.002985954,-0.002307892,-0.009692192,0.5656499,-0.5746838,0.09327852,0.5840175
-0.04632568,-0.03613281,0.01147461,-0.0297451,-0.01851368,0.01045227,0.6777103,0.2306339,-0.6861545,0.002222061,-0.002279282,-0.008609772,0.5639526,-0.5752728,0.09156753,0.5853486
-0.04562377,-0.03521728,0.0100708,-0.02947044,-0.01826954,0.009933472,0.6777103,0.2306339,-0.6861545,0.002922058,-0.001332283,-0.009963989,0.5622681,-0.5758811,0.08986849,0.586633
-0.04467773,-0.03479003,0.009490963,-0.02931786,-0.01796436,0.009597778,0.6417102,0.2096341,-0.6921545,0.003865242,-0.0008707047,-0.01049328,0.5605989,-0.5764993,0.08817054,0.5878798
-0.04476928,-0.03451537,0.01016235,-0.02910423,-0.01765919,0.00932312,0.6417102,0.2096341,-0.6921545,0.003770828,-0.0005626678,-0.009771347,0.5589498,-0.577101,0.08648728,0.5891084
-0.04492187,-0.03451537,0.01116943,-0.02916527,-0.01744556,0.009292603,0.6417102,0.2096341,-0.6921545,0.003615379,-0.0005292892,-0.00871563,0.5573041,-0.577687,0.08480769,0.5903363
-0.04501342,-0.03283691,0.01119995,-0.02892113,-0.01695728,0.009262085,0.6417102,0.2096341,-0.6921545,0.00352478,0.00117588,-0.008635521,0.5556489,-0.5782668,0.08319192,0.5915576
-0.04464721,-0.03298949,0.01193237,-0.0287075,-0.01625538,0.00932312,0.6417102,0.2096341,-0.6921545,0.003893852,0.001049995,-0.007851601,0.5540058,-0.578846,0.08160707,0.5927518
-0.04415893,-0.0324707,0.01150512,-0.02864647,-0.01570606,0.009414673,0.6417102,0.2096341,-0.6921545,0.004383087,0.001585007,-0.008246422,0.5524117,-0.5792857,0.08006416,0.5940191
-0.04302978,-0.03228759,0.01162719,-0.02828026,-0.01549244,0.009567261,0.6297101,0.2306339,-0.6861545,0.005516052,0.001782417,-0.008091927,0.550822,-0.5797148,0.07855305,0.5952772
-0.04260253,-0.03283691,0.01089477,-0.02791405,-0.01512623,0.00944519,0.6297101,0.2306339,-0.6861545,0.005946159,0.001247406,-0.008791924,0.5492482,-0.5801422,0.07706803,0.5965079
-0.04360961,-0.03201293,0.0112915,-0.02794456,-0.01564503,0.00944519,0.6297101,0.2306339,-0.6861545,0.00494194,0.002085686,-0.008365631,0.5476725,-0.5805435,0.0755594,0.5977579
-0.04421996,-0.03204345,0.01147461,-0.02788353,-0.0162859,0.009597778,0.6627102,0.2666339,-0.6951544,0.004332542,0.002067566,-0.00815773,0.5460927,-0.5809084,0.07403304,0.5990385
-0.04397582,-0.03207397,0.01339721,-0.02742577,-0.01610279,0.009078979,0.6627102,0.2666339,-0.6951544,0.004575729,0.002051353,-0.006212234,0.5445523,-0.5812617,0.07251177,0.6002828
-0.04461669,-0.03152465,0.01419067,-0.02739525,-0.01613331,0.008987427,0.6627102,0.2666339,-0.6951544,0.003936768,0.00261879,-0.005382538,0.5429724,-0.5816983,0.07099395,0.6014712
-0.04473876,-0.03131103,0.01367187,-0.02702904,-0.01695728,0.008956909,0.6327103,0.248634,-0.6741543,0.003814697,0.002849579,-0.005870819,0.5414023,-0.5820888,0.06946461,0.6026861
-0.04452514,-0.03210448,0.01397705,-0.02709007,-0.01799488,0.008865356,0.6327103,0.248634,-0.6741543,0.004023552,0.002075195,-0.005543709,0.5398483,-0.5824276,0.06786601,0.6039337
-0.04534911,-0.03192138,0.01351928,-0.0267849,-0.01927662,0.008865356,0.6327103,0.248634,-0.6741543,0.003192902,0.002275467,-0.005989075,0.5382951,-0.5827038,0.06624554,0.6052321
-0.04510497,-0.03216552,0.01358032,-0.02690697,-0.02043629,0.008682251,0.6207101,0.2606339,-0.6951544,0.003424644,0.002051353,-0.005922318,0.5367524,-0.5829272,0.06455519,0.6065683
-0.04516601,-0.03167724,0.01412963,-0.02647972,-0.02071095,0.008529663,0.6207101,0.2606339,-0.6951544,0.003351212,0.002557755,-0.005374908,0.5352341,-0.5831013,0.06287564,0.6079175
-0.04562377,-0.03198241,0.01461792,-0.02632713,-0.0218401,0.008224487,0.6207101,0.2606339,-0.6951544,0.002874374,0.002271652,-0.004898071,0.5337412,-0.5832073,0.06114328,0.6093035
-0.04611205,-0.03140258,0.01330566,-0.0259304,-0.02281666,0.008468628,0.6147101,0.248634,-0.6921545,0.002369881,0.002865791,-0.00622654,0.5322298,-0.5832759,0.05942218,0.6107286
-0.04757689,-0.0307312,0.01214599,-0.02550316,-0.02330494,0.008346558,0.6147101,0.248634,-0.6921545,0.0008897781,0.003548622,-0.00740242,0.5307064,-0.5833309,0.05773314,0.6121621
-0.04769896,-0.03079223,0.01159668,-0.02440453,-0.02513599,0.007492065,0.6147101,0.248634,-0.6921545,0.000743866,0.003501892,-0.007985115,0.5292685,-0.58327,0.05598534,0.6136257
-0.04742431,-0.02749633,0.008117672,-0.02355003,-0.02702808,0.006790161,0.6207101,0.2606339,-0.6951544,0.0009737015,0.006818771,-0.01154137,0.5280166,-0.5829244,0.05409451,0.6152
-0.05395507,-0.02520751,0.003479002,-0.02232933,-0.02702808,0.006759644,0.6207101,0.2606339,-0.6951544,-0.00556469,0.009101868,-0.0162077,0.5264977,-0.5828739,0.05255389,0.6166815
-0.06021117,-0.02563476,0.004882811,-0.02126122,-0.0255022,0.007125854,0.6207101,0.2606339,-0.6951544,-0.01181507,0.008653641,-0.01482487,0.524951,-0.5828493,0.05122153,0.6181337
-0.05859374,-0.02938842,0.01055908,-0.01985741,-0.02504444,0.00730896,0.6297101,0.2666339,-0.6951544,-0.01020241,0.004881859,-0.009191513,0.5235569,-0.5826696,0.04987261,0.6195864
-0.05456542,-0.03054809,0.01116943,-0.0184536,-0.02516651,0.006912231,0.6297101,0.2666339,-0.6951544,-0.0061903,0.003712654,-0.008637428,0.5223123,-0.5823998,0.04848418,0.6210006
-0.05780028,-0.03018188,0.005371092,-0.01726341,-0.02544117,0.006332397,0.6297101,0.2666339,-0.6951544,-0.0094347,0.004068375,-0.01447773,0.5210447,-0.5822195,0.0471811,0.6223348
-0.06137083,-0.02975463,0.0008850079,-0.0163784,-0.02504444,0.006057739,0.60272,0.2904971,-0.7099396,-0.01300526,0.004480362,-0.01898861,0.5197342,-0.5821425,0.04599248,0.6235915
-0.06777953,-0.02911376,0.001373289,-0.0158596,-0.02061939,0.006973267,0.60272,0.2904971,-0.7099396,-0.0194397,0.00511837,-0.01856995,0.5187706,-0.5817649,0.0447307,0.6248375
-0.07290648,-0.0309143,0.0067749,-0.0156765,-0.01366138,0.007949829,0.60272,0.2904971,-0.7099396,-0.02456665,0.003307343,-0.01318741,0.5177429,-0.5817062,0.04379604,0.6258106
-0.06747435,-0.03347778,0.01748657,-0.01506615,-0.008381844,0.008804321,0.59672,0.2514972,-0.6859396,-0.01911449,0.0007247925,-0.002458572,0.5166824,-0.5818709,0.04313672,0.6265798
-0.06002806,-0.03436279,0.02294921,-0.01512718,-0.005726814,0.008987427,0.59672,0.2514972,-0.6859396,-0.01163864,-0.0001811981,0.003040314,0.5156006,-0.5821632,0.04258711,0.6272371
-0.0489807,-0.03253173,0.02062988,-0.01552391,-0.00716114,0.009353638,0.59672,0.2514972,-0.6859396,-0.0005617142,0.0016222,0.0007457733,0.5144742,-0.5823759,0.04201737,0.6280029
-0.0422058,-0.03381347,0.01763915,-0.01646996,-0.010396,0.009750366,0.6207199,0.2604971,-0.7099396,0.006225586,0.0003290176,-0.002233505,0.5133495,-0.5825087,0.04117296,0.6288558
-0.04406738,-0.03686523,0.01675414,-0.01784325,-0.01088428,0.01069641,0.6207199,0.2604971,-0.7099396,0.004379272,-0.002731323,-0.003098488,0.5121173,-0.5827154,0.0402533,0.6297281
-0.04928588,-0.03826904,0.02279663,-0.01918602,-0.009083748,0.01158142,0.6207199,0.2604971,-0.7099396,-0.0008153915,-0.004154205,0.002970695,0.5107969,-0.5829512,0.03941673,0.6306346
-0.05026244,-0.03790282,0.02789306,-0.02010155,-0.006886482,0.01225281,0.5757199,0.2784973,-0.6979395,-0.001749039,-0.003818512,0.008120537,0.5093341,-0.5833651,0.03872652,0.6314774
-0.04733275,-0.03536987,0.02746581,-0.02098656,-0.005970955,0.01283264,0.5757199,0.2784973,-0.6979395,0.001218796,-0.001317024,0.007731438,0.5079066,-0.5836742,0.03799929,0.6323852
-0.04501342,-0.03485107,0.02548217,-0.02181053,-0.006123543,0.01408386,0.5757199,0.2784973,-0.6979395,0.003580093,-0.0008325577,0.005792618,0.5063811,-0.5840316,0.03726009,0.6333219
-0.04623412,-0.03640746,0.02398681,-0.02306175,-0.006428719,0.01472473,0.5997198,0.2634973,-0.7129394,0.002405167,-0.002421379,0.004353523,0.5047547,-0.5844675,0.03646456,0.6342638
-0.04788207,-0.03811645,0.02191162,-0.02382469,-0.006520271,0.01487732,0.5997198,0.2634973,-0.7129394,0.0008049011,-0.004158974,0.002347946,0.5030631,-0.5849905,0.03562663,0.6351725
-0.0505371,-0.03887939,0.02035522,-0.02492332,-0.004963875,0.0146637,0.5997198,0.2634973,-0.7129394,-0.001794815,-0.004946709,0.0008850098,0.5012853,-0.5856814,0.03480933,0.6359822
-0.0543518,-0.03909301,0.01998901,-0.02562523,-0.00325489,0.01451111,0.59672,0.3144974,-0.6709396,-0.005544662,-0.005192757,0.0006275177,0.4994486,-0.586463,0.03409024,0.6367487
-0.05361937,-0.03765868,0.02081298,-0.02666283,-0.003346443,0.01429749,0.59672,0.3144974,-0.6709396,-0.004748344,-0.003786087,0.00156498,0.4975543,-0.587287,0.03329813,0.6375008
-0.05197142,-0.03704833,0.02105712,-0.02742577,-0.004445076,0.01405334,0.59672,0.3144974,-0.6709396,-0.003043175,-0.003195763,0.001915932,0.4956885,-0.5880631,0.03240291,0.6382982
-0.05004882,-0.03741454,0.01922607,-0.02834129,-0.006581306,0.0136261,0.59672,0.2754971,-0.7009397,-0.001073837,-0.003573418,0.0001850128,0.4937944,-0.588799,0.03132953,0.6391408
-0.05233764,-0.03912353,0.01776122,-0.02910423,-0.007374763,0.01356506,0.59672,0.2754971,-0.7009397,-0.003316879,-0.005290031,-0.001174927,0.4918465,-0.5895743,0.03018548,0.6399826
-0.05355834,-0.03866576,0.01770019,-0.02992821,-0.008107185,0.01271057,0.59672,0.2754971,-0.7009397,-0.004495621,-0.004835129,-0.001131058,0.489885,-0.5903456,0.02896096,0.6408319
-0.05966185,-0.03811645,0.01412963,-0.03038597,-0.006123543,0.01216125,0.5757199,0.2874973,-0.6979395,-0.01055336,-0.004289627,-0.004590988,0.4879346,-0.5911525,0.02779483,0.641627
-0.0635681,-0.04086303,0.0196228,-0.03133202,-0.005482674,0.01219177,0.5757199,0.2874973,-0.6979395,-0.01441288,-0.007038116,0.001023293,0.4859352,-0.5920222,0.02660746,0.642392
-0.05615233,-0.03018188,0.0163269,-0.03020287,-0.004109383,0.01179504,0.5757199,0.2874973,-0.6979395,-0.006930351,0.003620148,-0.00213623,0.4838666,-0.5929832,0.02568033,0.6431038
-0.05999754,-0.03793334,0.0208435,-0.03114891,-0.00224781,0.01167297,0.5757199,0.2874973,-0.6979395,-0.01072121,-0.004132271,0.002523422,0.4818875,-0.5939975,0.02459771,0.6436952
-0.05563353,-0.03530883,0.01831054,-0.02998924,-0.002217293,0.01200867,0.5757199,0.2874973,-0.6979395,-0.006295204,-0.001521111,0.0001344681,0.47989,-0.5950038,0.02364596,0.6442925
-0.04763793,-0.04107665,0.01953124,-0.03035545,-0.003926277,0.01182556,0.5757199,0.2874973,-0.6979395,0.001734734,-0.00727272,0.001480103,0.4780442,-0.5958892,0.02237667,0.6448901
-0.04421996,-0.03848266,0.0145874,-0.02998924,-0.007283211,0.01173401,0.5907199,0.3264972,-0.6739395,0.005181313,-0.00466156,-0.003354073,0.4761826,-0.5966749,0.02100699,0.6455851
-0.041687,-0.03555297,0.01098632,-0.02989769,-0.009144783,0.01130676,0.5907199,0.3264972,-0.6739395,0.00774765,-0.001734734,-0.00687027,0.4742869,-0.5972902,0.0197176,0.6464576
-0.04669189,-0.03463744,0.01004028,-0.02950096,-0.009785652,0.01145935,0.5907199,0.3264972,-0.6739395,0.0027771,-0.0008144379,-0.007712364,0.4723507,-0.5980246,0.01838205,0.6472351
-0.04644775,-0.03430175,0.006958006,-0.02837181,-0.009480476,0.01167297,0.58772,0.3054971,-0.6949396,0.003059387,-0.0004777908,-0.01068497,0.4704211,-0.5987957,0.01712779,0.6479614
-0.04562377,-0.03713989,0.01443481,-0.02876854,-0.01036549,0.01182556,0.58772,0.3054971,-0.6949396,0.003908157,-0.003311157,-0.003129005,0.4685803,-0.5993651,0.01575614,0.6488032
-0.03955077,-0.03289794,0.01403808,-0.02776146,-0.0135088,0.01194763,0.58772,0.3054971,-0.6949396,0.0100069,0.0009145737,-0.003484726,0.4667352,-0.5996723,0.01444611,0.6498788
-0.03982543,-0.03326415,0.01013183,-0.02672386,-0.01582813,0.01179504,0.60272,0.3054971,-0.6799396,0.009750366,0.0005311966,-0.007372856,0.4649446,-0.5998241,0.01309789,0.6510497
-0.04467773,-0.03634643,0.006896971,-0.0262661,-0.01704884,0.01164246,0.60272,0.3054971,-0.6799396,0.004910469,-0.002548218,-0.01056671,0.4631537,-0.6001264,0.01160811,0.6520751
-0.04772948,-0.03540038,0.00564575,-0.0259304,-0.01735401,0.01176453,0.60272,0.3054971,-0.6799396,0.001877785,-0.001607895,-0.01177502,0.4613144,-0.6004383,0.01019093,0.6531146
-0.05215453,-0.03515624,0.008575436,-0.02586937,-0.01686573,0.01170349,0.58772,0.3504971,-0.6799396,-0.002522469,-0.001379013,-0.008806229,0.4594575,-0.6007221,0.008855314,0.6541812
-0.0552368,-0.03396606,0.01278686,-0.02513695,-0.01588917,0.01145935,0.58772,0.3504971,-0.6799396,-0.005577087,-0.0002145767,-0.004564285,0.4576398,-0.6009382,0.007643314,0.6552712
-0.05511473,-0.03332519,0.01541137,-0.02477074,-0.01533985,0.0113678,0.58772,0.3504971,-0.6799396,-0.005427361,0.0003967285,-0.001917839,0.4558621,-0.6011004,0.006474084,0.6563733
-0.05361937,-0.03350829,0.01678466,-0.02422142,-0.01515675,0.01112366,0.5907199,0.3324972,-0.6919397,-0.003908157,0.0001869202,-0.0005292892,0.4541517,-0.6012096,0.005302176,0.6574685
-0.05426024,-0.03582763,0.01727294,-0.02409935,-0.01546192,0.01100159,0.5907199,0.3324972,-0.6919397,-0.004530907,-0.00215435,-2.95639e-05,0.4524744,-0.6012968,0.004081571,0.6585531
-0.05371093,-0.03753661,0.0170288,-0.02409935,-0.01585865,0.01106262,0.5907199,0.3324972,-0.6919397,-0.003967285,-0.003879547,-0.0002641678,0.4508143,-0.6013697,0.002807681,0.6596307
-0.05377196,-0.03775024,0.01840209,-0.02467918,-0.01579762,0.01048279,0.5757199,0.2784973,-0.6739395,-0.00401783,-0.004103661,0.001117706,0.4491698,-0.6014314,0.001476209,0.6606998
-0.0543518,-0.03735351,0.02029418,-0.02474022,-0.01582813,0.009994507,0.5757199,0.2784973,-0.6739395,-0.004588127,-0.003717422,0.003016472,0.4475321,-0.6014785,0.0001461189,0.6617691
-0.05126952,-0.03625488,0.01956176,-0.0245266,-0.01485157,0.009963989,0.5757199,0.2784973,-0.6739395,-0.001498222,-0.002626419,0.002291679,0.4459385,-0.6015289,-0.001173686,0.6627972
-0.04980468,-0.03631591,0.01992797,-0.02495384,-0.01488209,0.009536743,0.6147199,0.3264972,-0.6679394,-2.95639e-05,-0.002688408,0.00266552,0.4443646,-0.6015723,-0.002556846,0.6638101
-0.04620361,-0.03656005,0.01959228,-0.02544212,-0.01677418,0.009475708,0.6147199,0.3264972,-0.6679394,0.003563881,-0.002924919,0.002323151,0.4428068,-0.6015217,-0.004085132,0.6648885
-0.04364013,-0.03689574,0.01815795,-0.02614403,-0.01826954,0.009536743,0.6147199,0.3264972,-0.6679394,0.006114006,-0.003246307,0.000878334,0.4412277,-0.6014355,-0.005737982,0.666003
-0.04357909,-0.03601073,0.0180664,-0.02647972,-0.01857471,0.009719849,0.59672,0.3504971,-0.6799396,0.006162643,-0.0023489,0.0007753372,0.4396104,-0.6013402,-0.007392351,0.6671413
-0.04373168,-0.0364685,0.01699829,-0.02638817,-0.0180254,0.009658813,0.59672,0.3504971,-0.6799396,0.005999565,-0.002793312,-0.0002965927,0.4379907,-0.6012933,-0.009033545,0.6682277
-0.04351806,-0.03533935,0.01626586,-0.02660179,-0.01707935,0.009567261,0.59672,0.3504971,-0.6799396,0.006206512,-0.001651764,-0.001023293,0.4363463,-0.6013097,-0.01063825,0.6692644
-0.04351806,-0.03546142,0.01641845,-0.02660179,-0.01659107,0.009841919,0.5907199,0.3414972,-0.6679394,0.006202698,-0.00176239,-0.0008602142,0.4346883,-0.601344,-0.01221618,0.6702847
-0.04354858,-0.03488158,0.01531982,-0.02617455,-0.01616383,0.009567261,0.5907199,0.3414972,-0.6679394,0.006169319,-0.001172066,-0.001944542,0.4330443,-0.6014056,-0.01375884,0.6712629
-0.04315185,-0.03469848,0.01419067,-0.02608299,-0.01656055,0.009567261,0.5907199,0.3414972,-0.6679394,0.00656414,-0.0009775162,-0.003059387,0.431393,-0.6014633,-0.01531188,0.67224
-0.04330444,-0.03512572,0.01455688,-0.02586937,-0.01790333,0.00944519,0.5757199,0.3474973,-0.6829395,0.006403923,-0.001393318,-0.002691269,0.4297599,-0.6014349,-0.01690966,0.6732722
-0.04367065,-0.03482055,0.01385498,-0.02541161,-0.0192461,0.008895874,0.5757199,0.3474973,-0.6829395,0.006025314,-0.001073837,-0.003400803,0.4281572,-0.6013359,-0.01854204,0.6743379
-0.04669189,-0.03411864,0.01296997,-0.02507591,-0.01988697,0.009170532,0.5757199,0.3474973,-0.6829395,0.002997398,-0.0003671646,-0.004294395,0.4265026,-0.6012264,-0.02011113,0.675438
-0.05059813,-0.03329467,0.01333618,-0.02406883,-0.01979542,0.008804321,0.55772,0.3714972,-0.6829395,-0.0009098053,0.0004529953,-0.003940582,0.4248619,-0.6010973,-0.02157268,0.6765409
-0.05242919,-0.03454589,0.01260376,-0.02358055,-0.01964283,0.008743286,0.55772,0.3714972,-0.6829395,-0.002741814,-0.0008020401,-0.004681587,0.4232318,-0.6009887,-0.0230082,0.6776108
-0.05422973,-0.03503417,0.01358032,-0.02242088,-0.01860523,0.00819397,0.55772,0.3714972,-0.6829395,-0.004541397,-0.00129509,-0.003712654,0.4216774,-0.6008819,-0.02436028,0.6786264
-0.05606078,-0.03518676,0.01351928,-0.02116966,-0.01799488,0.00819397,0.5787296,0.3594974,-0.6709201,-0.006368637,-0.001458168,-0.003781319,0.4201606,-0.6007767,-0.02560675,0.6796135
-0.05648802,-0.03500365,0.01431274,-0.02016258,-0.01753712,0.007888794,0.5787296,0.3594974,-0.6709201,-0.006791115,-0.00128746,-0.003000259,0.4187053,-0.6006436,-0.02679028,0.6805828
-0.05715941,-0.03604125,0.01589965,-0.01924706,-0.01619434,0.007614136,0.5787296,0.3594974,-0.6709201,-0.007466316,-0.002331734,-0.001437187,0.4173943,-0.600432,-0.02795731,0.681527
-0.05590819,-0.03607177,0.01727294,-0.01827049,-0.01601124,0.00730896,0.5547296,0.3354971,-0.6619202,-0.006215096,-0.002373695,-8.487701e-05,0.4160961,-0.6002433,-0.02904683,0.6824377
-0.05606078,-0.03689574,0.02035522,-0.01759911,-0.01625538,0.007247925,0.5547296,0.3354971,-0.6619202,-0.006373405,-0.003206253,0.002964973,0.4148778,-0.5999708,-0.03014654,0.6833715
-0.05633543,-0.03649902,0.02355956,-0.01695824,-0.01653004,0.007156372,0.5547296,0.3354971,-0.6619202,-0.006654739,-0.002818108,0.006131172,0.4136913,-0.5996613,-0.03122563,0.684314
-0.05773924,-0.03735351,0.02453613,-0.01595116,-0.01561451,0.00718689,0.5547296,0.3744974,-0.6709201,-0.008063316,-0.003684998,0.007071495,0.4125499,-0.5993658,-0.03222178,0.6852157
-0.05847166,-0.0394287,0.02655029,-0.0156765,-0.01530933,0.006942749,0.5547296,0.3744974,-0.6709201,-0.00880146,-0.005770683,0.009050369,0.4114331,-0.5990752,-0.03320505,0.6860942
-0.05874632,-0.03912353,0.03079223,-0.01524925,-0.01530933,0.007125854,0.5547296,0.3744974,-0.6709201,-0.009079933,-0.005478859,0.01325417,0.4103249,-0.5987698,-0.0341575,0.6869776
-0.06066893,-0.03897094,0.032135,-0.01488304,-0.01451588,0.007034302,0.5097296,0.3714972,-0.6919202,-0.0110054,-0.005339622,0.01456356,0.409239,-0.5984926,-0.03507002,0.6878208
-0.06195067,-0.03955077,0.03445434,-0.01485252,-0.01396656,0.006912231,0.5097296,0.3714972,-0.6919202,-0.01228905,-0.005931854,0.01685333,0.4081611,-0.5982412,-0.03596927,0.6886333
-0.06222533,-0.0387268,0.03546142,-0.0146389,-0.01427174,0.006332397,0.5097296,0.3714972,-0.6919202,-0.01256943,-0.005116463,0.01782703,0.4071214,-0.5979639,-0.03689316,0.6894404
-0.06161498,-0.0392456,0.03607177,-0.01451683,-0.01521778,0.005996704,0.5097296,0.3714972,-0.6919202,-0.01196957,-0.005641937,0.01839638,0.4061011,-0.5976306,-0.0378552,0.6902787
-0.05978392,-0.03756713,0.03552245,-0.01521873,-0.0168047,0.005691528,0.5097296,0.3714972,-0.6919202,-0.01015472,-0.003965378,0.01779842,0.4050591,-0.5972328,-0.03891712,0.6911758
-0.05892943,-0.03713989,0.03503417,-0.01610374,-0.01863575,0.005477905,0.5097296,0.3714972,-0.6919202,-0.00932312,-0.003535271,0.01725101,0.4039811,-0.5967632,-0.04009183,0.6921446
-0.05856322,-0.03546142,0.03436279,-0.01595116,-0.02007008,0.005081177,0.5247296,0.3864972,-0.6829199,-0.008984566,-0.001852036,0.01651001,0.4029251,-0.5962097,-0.04132056,0.6931643
-0.05944823,-0.03414916,0.03335571,-0.01628685,-0.02119923,0.004776001,0.5247296,0.3864972,-0.6829199,-0.009902954,-0.0005311966,0.01542568,0.4018647,-0.5956033,-0.04261543,0.6942221
-0.05981444,-0.03338622,0.03271484,-0.0168972,-0.02208424,0.004318237,0.5247296,0.3864972,-0.6829199,-0.01030827,0.0002450943,0.0147047,0.4007961,-0.5949647,-0.04399033,0.6953009
-0.0592346,-0.03094482,0.03149413,-0.01683617,-0.02275562,0.004074097,0.5337296,0.3774973,-0.6979199,-0.00976944,0.002701759,0.01339912,0.399739,-0.5942851,-0.04539338,0.6963997
-0.0590515,-0.02990722,0.02932739,-0.01723289,-0.02235889,0.003738403,0.5337296,0.3774973,-0.6979199,-0.00962925,0.003759384,0.01115227,0.3986813,-0.5936346,-0.0468204,0.6974657
-0.05960082,-0.02862548,0.0274353,-0.01759911,-0.02196217,0.003463745,0.5337296,0.3774973,-0.6979199,-0.01022148,0.005064011,0.009184837,0.3976211,-0.5930126,-0.04826704,0.6985007
-0.05999754,-0.02844238,0.02627563,-0.01802635,-0.02116871,0.003250122,0.5277298,0.3894974,-0.6709201,-0.01066113,0.005272865,0.007958412,0.3965541,-0.5924423,-0.04972183,0.6994886
-0.05932616,-0.02728271,0.0270996,-0.01869774,-0.0204668,0.003005981,0.5277298,0.3894974,-0.6709201,-0.0100317,0.006462097,0.008725166,0.3954706,-0.591926,-0.051202,0.7004316
-0.05908202,-0.0256958,0.02661132,-0.01921654,-0.01912403,0.002609253,0.5277298,0.3894974,-0.6709201,-0.009827614,0.008083344,0.008192062,0.3943883,-0.591493,-0.05268706,0.701297
-0.05899046,-0.02542114,0.02713012,-0.01988792,-0.01704884,0.002700806,0.5217297,0.3984973,-0.67992,-0.00976944,0.008393288,0.008685112,0.3932775,-0.5911891,-0.05414128,0.7020659
-0.05926512,-0.02496337,0.02694701,-0.02062035,-0.01512623,0.002304077,0.5217297,0.3984973,-0.67992,-0.01007557,0.008892059,0.008495331,0.3921614,-0.591006,-0.05559472,0.7027305
-0.05804442,-0.02365112,0.02655029,-0.0212307,-0.01335621,0.002334595,0.5217297,0.3984973,-0.67992,-0.008857727,0.01019955,0.008081436,0.3908742,-0.5907883,-0.05668241,0.7035434
-0.05743407,-0.02371215,0.02673339,-0.0217495,-0.01204395,0.002059937,0.5007297,0.3774973,-0.6919202,-0.008249283,0.01013851,0.00825882,0.3895916,-0.5906448,-0.05777985,0.7042857
-0.05517577,-0.0248413,0.026062,-0.02272606,-0.01045704,0.002212524,0.5007297,0.3774973,-0.6919202,-0.005992889,0.009018898,0.007599831,0.388295,-0.5906153,-0.05892981,0.7049309
-0.05529784,-0.02441406,0.02670287,-0.023489,-0.009358406,0.002334595,0.5007297,0.3774973,-0.6919202,-0.006112099,0.009453773,0.008262634,0.3869601,-0.5906505,-0.06007053,0.7055389
-0.05334472,-0.02359008,0.02645873,-0.02458763,-0.008595467,0.002243042,0.5277298,0.3834973,-0.6859201,-0.004156113,0.0102911,0.008050919,0.385593,-0.5907456,-0.06126104,0.7061052
-0.05221556,-0.02429199,0.02597045,-0.02507591,-0.007954597,0.001907349,0.5277298,0.3834973,-0.6859201,-0.003026009,0.009609222,0.007602692,0.3842402,-0.5908893,-0.0625039,0.7066133
-0.05221556,-0.02450561,0.02569579,-0.02620506,-0.007985115,0.001968384,0.5277298,0.3834973,-0.6859201,-0.003025055,0.009420395,0.007375717,0.3828318,-0.5910681,-0.06381006,0.7071113
-0.05084227,-0.02532958,0.02496337,-0.02638817,-0.00792408,0.001541138,0.5157297,0.4254971,-0.6979199,-0.001654625,0.008627892,0.006692886,0.3814558,-0.5912583,-0.06517935,0.7075709
-0.05133056,-0.02563476,0.02325439,-0.02699852,-0.008961678,0.001205444,0.5157297,0.4254971,-0.6979199,-0.002149582,0.008359909,0.005036354,0.3800476,-0.5914488,-0.06662998,0.7080342
-0.0522766,-0.0248413,0.02185058,-0.02815819,-0.007649422,0.001083374,0.5157297,0.4254971,-0.6979199,-0.003094673,0.009191513,0.003705025,0.3785674,-0.591777,-0.06808469,0.7084144
-0.05319213,-0.025177,0.01873779,-0.02699852,-0.007069588,0.0007171631,0.4887296,0.4194974,-0.6619202,-0.004006386,0.008893967,0.0006761551,0.3771292,-0.592176,-0.06947881,0.7087126
-0.05212401,-0.03100585,0.02462768,-0.02837181,-0.007618904,0.0006561279,0.4887296,0.4194974,-0.6619202,-0.002952576,0.003121376,0.006633759,0.3757555,-0.5924451,-0.07108044,0.7090585
-0.05059813,-0.02975463,0.02584838,-0.02886009,-0.008259773,1.525879e-05,0.4887296,0.4194974,-0.6619202,-0.001446724,0.004432678,0.007913589,0.3744009,-0.5926445,-0.07274479,0.7094395
-0.05026244,-0.02859497,0.02117919,-0.02766991,-0.008320808,7.629395e-05,0.4887296,0.4194974,-0.6619202,-0.001125336,0.005648613,0.003313065,0.3730468,-0.5929065,-0.07433623,0.7097688
-0.05502318,-0.03280639,0.02508544,-0.02837181,-0.007618904,-0.0003795624,0.4887296,0.4194974,-0.6619202,-0.005908012,0.001517296,0.007309914,0.3717405,-0.5932975,-0.07610543,0.7099399
-0.05380248,-0.02911376,0.02481078,-0.02818871,-0.007557869,-0.0009288788,0.4887296,0.4194974,-0.6619202,-0.004703522,0.00526619,0.007102966,0.3704064,-0.5935439,-0.07769737,0.7102553
-0.05380248,-0.03302001,0.02328491,-0.02846336,-0.006398201,-0.0003185272,0.5127298,0.4284973,-0.6949201,-0.004717827,0.001424789,0.005661964,0.3690742,-0.5939001,-0.07932557,0.710472
-0.05612181,-0.03381347,0.02438354,-0.02861595,-0.005543709,-0.0009593964,0.5127298,0.4284973,-0.6949201,-0.00705719,0.0007152557,0.006869316,0.3677973,-0.5943978,-0.08107509,0.7105213
-0.05117797,-0.02664184,0.01977539,-0.02635765,-0.004323006,-0.0006847382,0.5127298,0.4284973,-0.6949201,-0.002114296,0.007936478,0.002356529,0.3665139,-0.5948495,-0.08245956,0.7106476
-0.05487059,-0.03652953,0.02529906,-0.02724266,-0.002980232,-0.0005626678,0.5037296,0.4434973,-0.6709201,-0.005817413,-0.001874924,0.008001328,0.36529,-0.5954445,-0.08404442,0.7105943
-0.05136107,-0.03329467,0.02474975,-0.02651024,-0.003682137,-0.0009593964,0.5037296,0.4434973,-0.6709201,-0.002323151,0.001424789,0.007539749,0.3641317,-0.5958176,-0.08554261,0.7106976
-0.04843139,-0.02749633,0.01913452,-0.02486229,-0.003743172,-0.000623703,0.5037296,0.4434973,-0.6709201,0.0006027222,0.007273674,0.002016068,0.362947,-0.596242,-0.08687676,0.710786
-0.0543518,-0.03808593,0.02636718,-0.02589989,-0.003468513,-0.0006847382,0.5097296,0.4314972,-0.67392,-0.005330086,-0.003243446,0.009360313,0.3617832,-0.596765,-0.08840745,0.7107518
-0.0500183,-0.0338745,0.02609252,-0.02513695,-0.004292488,-0.0005626678,0.5097296,0.4314972,-0.67392,-0.001015663,0.001027107,0.009155273,0.3606898,-0.5970163,-0.08984791,0.7109159
-0.04754638,-0.02764892,0.02127075,-0.02251244,-0.004048347,1.525879e-05,0.5097296,0.4314972,-0.67392,0.001452446,0.007291794,0.004403114,0.3595996,-0.5972973,-0.09103599,0.711081
-0.05493163,-0.03973388,0.02957153,-0.02342796,-0.002949715,4.577637e-05,0.5007297,0.4704971,-0.65892,-0.005939484,-0.004733086,0.01280594,0.358509,-0.5977791,-0.09238485,0.7110529
-0.0510559,-0.03552245,0.02868652,-0.02220726,-0.003376961,0.0001373291,0.5007297,0.4704971,-0.65892,-0.00207901,-0.0004758835,0.01197433,0.3575424,-0.5979429,-0.09361385,0.7112411
-0.05065917,-0.02874755,0.02459716,-0.02034569,-0.003193855,-7.43866e-05,0.5007297,0.4704971,-0.65892,-0.001684189,0.006327629,0.007939339,0.356563,-0.5981487,-0.09463005,0.7114252
-0.05545042,-0.03869628,0.02893066,-0.02083397,-0.002644539,0.0004425049,0.5157297,0.4555362,-0.6589493,-0.006479263,-0.00357151,0.01236534,0.3555691,-0.5985741,-0.09581176,0.7114067
-0.05261229,-0.03631591,0.02877807,-0.0201931,-0.003499031,0.00050354,0.5157297,0.4555362,-0.6589493,-0.003647804,-0.001144409,0.01229477,0.3545894,-0.5989347,-0.09697885,0.7114317
-0.05130004,-0.03228759,0.02716064,-0.01888084,-0.003773689,0.0002593994,0.5157297,0.4555362,-0.6589493,-0.002343178,0.002912521,0.01071262,0.353712,-0.5990112,-0.09796403,0.7116714
-0.0550537,-0.03530883,0.02899169,-0.0181179,-0.003407478,0.0005950928,0.5007297,0.4705362,-0.6349493,-0.006102562,-6.771088e-05,0.0126152,0.3528241,-0.5993188,-0.09901178,0.7117071
-0.05548094,-0.03738403,0.03005981,-0.01769066,-0.004475594,7.629395e-05,0.5007297,0.4705362,-0.6349493,-0.006540298,-0.002100945,0.01374531,0.3519691,-0.5995518,-0.1000886,0.7117795
-0.05160521,-0.03335571,0.02853393,-0.01683617,-0.006062508,-0.0001049042,0.5007297,0.4705362,-0.6349493,-0.002682686,0.001955032,0.01222229,0.3512109,-0.5994115,-0.1010484,0.7121417
-0.05413817,-0.03408813,0.02609252,-0.01616478,-0.005391121,-7.43866e-05,0.5007297,0.4705362,-0.6349493,-0.005228996,0.001262665,0.009827614,0.3504342,-0.5995505,-0.1020739,0.712261
-0.05639647,-0.03344726,0.02401733,-0.01616478,-0.004567146,-0.0001659393,0.5007297,0.4705362,-0.6349493,-0.007499695,0.001945496,0.007805824,0.3496684,-0.5997326,-0.1030814,0.712339
-0.05398558,-0.0336914,0.02169799,-0.01485252,-0.004261971,-0.0001049042,0.5007297,0.4705362,-0.6349493,-0.005093575,0.001722336,0.00551796,0.3489251,-0.5998064,-0.1038837,0.7125247
-0.05477904,-0.03561401,0.02444457,-0.01497459,-0.004475594,-0.0001964569,0.5097296,0.4765362,-0.6439493,-0.005899429,-0.0001621246,0.008312225,0.3482151,-0.5999596,-0.1048253,0.7126051
-0.05273436,-0.032135,0.02404784,-0.01433372,-0.004963875,-1.335144e-05,0.5097296,0.4765362,-0.6439493,-0.003861427,0.003333092,0.007929802,0.3474972,-0.599916,-0.1055879,0.7128797
-0.05368041,-0.0316162,0.02200317,-0.013937,-0.004078865,7.629395e-05,0.5097296,0.4765362,-0.6439493,-0.004808426,0.003864288,0.00590992,0.3467661,-0.5999632,-0.1062864,0.7130921
-0.05441283,-0.03244018,0.02133178,-0.01390648,-0.002766609,0.0001068115,0.5247296,0.4615363,-0.6529492,-0.005537987,0.003053665,0.005277634,0.3460415,-0.6001005,-0.1069563,0.7132283
-0.05133056,-0.03198241,0.02001953,-0.01408958,-0.002919197,7.629395e-05,0.5247296,0.4615363,-0.6529492,-0.002455711,0.003529549,0.004005432,0.3453281,-0.6002398,-0.1076774,0.7133483
-0.04946898,-0.03070068,0.02017211,-0.01375389,-0.002980232,0.0001373291,0.5247296,0.4615363,-0.6529492,-0.0005950928,0.004827499,0.004193306,0.3446327,-0.6003485,-0.1083769,0.7134871
-0.04919432,-0.03085327,0.01803588,-0.01372337,-0.002614021,1.525879e-05,0.5127298,0.4525363,-0.6229492,-0.0003194809,0.004694939,0.002101898,0.3439365,-0.6005206,-0.1090855,0.7135702
-0.04837035,-0.03182983,0.01760864,-0.0141201,-0.001973152,4.577637e-05,0.5127298,0.4525363,-0.6229492,0.0005044937,0.003742218,0.001728058,0.3432437,-0.6007401,-0.1098286,0.7136049
-0.04629516,-0.03112792,0.01766967,-0.01451683,-0.002339363,-0.0001049042,0.5127298,0.4525363,-0.6229492,0.002575874,0.004471779,0.001839638,0.3425531,-0.6009302,-0.1106219,0.713654
-0.04809569,-0.02722167,0.01260376,-0.01372337,-0.0009965897,0.0006256104,0.4677298,0.4945364,-0.6139493,0.0007915497,0.008388519,-0.003152847,0.3417622,-0.6013059,-0.1112239,0.713623
-0.05029296,-0.03424072,0.01681518,-0.01457787,-0.0001420975,0.0004425049,0.4677298,0.4945364,-0.6139493,-0.001399994,0.001394272,0.001132965,0.3410432,-0.6016659,-0.1119498,0.7135499
-0.04644775,-0.0319519,0.01473999,-0.01469994,-0.0001420975,0.0009613037,0.4677298,0.4945364,-0.6139493,0.00245285,0.003705978,-0.0008649826,0.3402901,-0.6020504,-0.1126716,0.7134714
-0.04385375,-0.02944946,0.01455688,-0.01451683,0.0009241104,0.001083374,0.5127298,0.5035364,-0.6409494,0.005055428,0.006235123,-0.0009622574,0.3395719,-0.6024863,-0.1133875,0.7133319
-0.04824828,-0.03106689,0.01318359,-0.01457787,0.002968788,0.001235962,0.5127298,0.5035364,-0.6409494,0.0006828308,0.00463295,-0.002228737,0.3387926,-0.6030824,-0.1139739,0.713105
-0.04660033,-0.03128051,0.01162719,-0.01482201,0.004311562,0.001419067,0.5127298,0.5035364,-0.6409494,0.002355576,0.0044384,-0.003663063,0.3380136,-0.6037791,-0.1145622,0.7127904
-0.04483031,-0.0309143,0.01040649,-0.01482201,0.005105019,0.001876831,0.4827298,0.5005362,-0.6589493,0.00414753,0.004824638,-0.004764557,0.3372726,-0.6044546,-0.1151496,0.7124737
-0.04461669,-0.03372192,0.01248169,-0.01543236,0.005288124,0.00227356,0.4827298,0.5005362,-0.6589493,0.004384995,0.002038956,-0.002561569,0.336488,-0.6051857,-0.1157751,0.7121221
-0.044281,-0.03311156,0.01229858,-0.01543236,0.005532265,0.002578735,0.4827298,0.5005362,-0.6589493,0.004746437,0.002667427,-0.002614021,0.335684,-0.6059309,-0.1163727,0.7117699
-0.0437622,-0.03189086,0.01126098,-0.01509666,0.006325722,0.002914429,0.4947296,0.5035364,-0.6409494,0.005295753,0.003901482,-0.003521919,0.3348912,-0.6066861,-0.1168953,0.7114177
-0.04598998,-0.03323364,0.01110839,-0.01531029,0.007821083,0.003128052,0.4947296,0.5035364,-0.6409494,0.003105164,0.002570152,-0.003522873,0.3340585,-0.6075881,-0.1173866,0.7109584
-0.04556274,-0.03402709,0.01049804,-0.01537132,0.008522987,0.002975464,0.4947296,0.5035364,-0.6409494,0.003567696,0.001791954,-0.003974915,0.3332485,-0.608534,-0.1178935,0.7104454
-0.04556274,-0.03359985,0.009185787,-0.01552391,0.00937748,0.003707886,0.5037296,0.5185364,-0.6169494,0.003610611,0.002228737,-0.005117416,0.3323846,-0.6095616,-0.1183497,0.7098931
-0.04409789,-0.03585815,0.009674069,-0.01573753,0.009530067,0.003982544,0.5037296,0.5185364,-0.6169494,0.005113602,-1.430511e-05,-0.004458427,0.3315476,-0.6105776,-0.1188608,0.7093257
-0.04489135,-0.03399657,0.01043701,-0.0156765,0.009835243,0.003982544,0.5037296,0.5185364,-0.6169494,0.004362106,0.00185585,-0.003527641,0.33069,-0.6115928,-0.1193103,0.7087759
-0.04296874,-0.03405761,0.009918209,-0.0151577,0.009652138,0.004104614,0.5037296,0.5035364,-0.6019495,0.006327629,0.001795769,-0.003890991,0.3298487,-0.6125334,-0.1196945,0.7082906
-0.04425048,-0.03445434,0.009338375,-0.01506615,0.01068974,0.004196167,0.5037296,0.5035364,-0.6019495,0.00508976,0.001405716,-0.004296303,0.3290225,-0.6135914,-0.1201004,0.7076902
-0.04382323,-0.03503417,0.009338375,-0.01531029,0.01090336,0.00428772,0.5037296,0.5035364,-0.6019495,0.005558968,0.0008354187,-0.004119873,0.3281953,-0.6146593,-0.1205259,0.7070749
-0.04315185,-0.03515624,0.009796139,-0.01506615,0.01001835,0.004165649,0.5037296,0.5035364,-0.6169494,0.006268501,0.0007228851,-0.003495216,0.3273918,-0.6156523,-0.1209742,0.7065068
-0.04330444,-0.03466796,0.009521481,-0.01482201,0.0106287,0.004257202,0.5037296,0.5035364,-0.6169494,0.006155968,0.001217842,-0.003600121,0.3265912,-0.6166755,-0.1213789,0.7059153
-0.04190063,-0.03488158,0.007934567,-0.01408958,0.01087284,0.00440979,0.5037296,0.5035364,-0.6169494,0.007605553,0.0009994507,-0.005027771,0.3257916,-0.6176519,-0.1216589,0.7053828
-0.0437622,-0.03561401,0.008880612,-0.01372337,0.01130009,0.00453186,0.5277298,0.5035364,-0.6079492,0.005785942,0.0002708435,-0.003911018,0.3250384,-0.6186932,-0.1219891,0.7047604
-0.04296874,-0.03515624,0.007965084,-0.01314354,0.01148319,0.003982544,0.5277298,0.5035364,-0.6079492,0.006623268,0.0007238388,-0.004668236,0.3243107,-0.6196727,-0.1222227,0.7041944
-0.04241943,-0.03573608,0.008911129,-0.01262474,0.01172733,0.00453186,0.5277298,0.5035364,-0.6079492,0.007219315,0.0001335144,-0.003563881,0.3235797,-0.6206563,-0.1223963,0.703634
-0.04315185,-0.03741454,0.009826656,-0.01241112,0.0118494,0.004745483,0.5217297,0.4975363,-0.6019495,0.00652504,-0.001541138,-0.002485275,0.322924,-0.6216552,-0.1226691,0.7030056
-0.04275512,-0.03659057,0.009765621,-0.01149559,0.01160526,0.004867554,0.5217297,0.4975363,-0.6019495,0.006960869,-0.0007171631,-0.002389908,0.3222972,-0.6226149,-0.1228819,0.7024065
-0.04452514,-0.03662109,0.009796139,-0.01112938,0.01221561,0.004562378,0.5217297,0.4975363,-0.6019495,0.005230904,-0.0007505417,-0.00220108,0.3216915,-0.6236012,-0.1230519,0.7017792
-0.04367065,-0.03732299,0.009094235,-0.01051903,0.01291752,0.004562378,0.5367298,0.4885364,-0.6079492,0.006124496,-0.001452446,-0.002739906,0.3211363,-0.6246151,-0.1231988,0.7011057
-0.04248046,-0.03784179,0.009643551,-0.0103054,0.01264286,0.00440979,0.5367298,0.4885364,-0.6079492,0.007349014,-0.00196743,-0.002034187,0.320623,-0.6255829,-0.1233702,0.7004473
-0.04196166,-0.03753661,0.009979244,-0.009542465,0.01245975,0.004379272,0.5367298,0.4885364,-0.6079492,0.007901192,-0.001660347,-0.001549721,0.3201518,-0.6265075,-0.1235053,0.6998124
-0.04183959,-0.03875732,0.01135254,-0.009176254,0.01203251,0.004013062,0.5427298,0.5245364,-0.5749493,0.008049965,-0.002874374,-3.814697e-05,0.3197434,-0.6273597,-0.1236667,0.6992068
-0.04248046,-0.03836059,0.01013183,-0.008871078,0.01154423,0.003707886,0.5427298,0.5245364,-0.5749493,0.007435799,-0.00247097,-0.001120567,0.31934,-0.6282038,-0.1238273,0.6986046
-0.04290771,-0.03915405,0.00915527,-0.00835228,0.01099491,0.003829956,0.5427298,0.5245364,-0.5749493,0.007033348,-0.003257751,-0.001963615,0.3189489,-0.629027,-0.123981,0.6980151
-0.04290771,-0.03997802,0.008972164,-0.007894516,0.01090336,0.003494263,0.5037296,0.5366241,-0.5839981,0.007055283,-0.004071236,-0.002015114,0.3186074,-0.6298305,-0.1241442,0.6974172
-0.04293822,-0.04022216,0.009490963,-0.007680893,0.01044559,0.003646851,0.5037296,0.5366241,-0.5839981,0.007045746,-0.004306793,-0.001371384,0.318272,-0.6305908,-0.124301,0.6968552
-0.04397582,-0.04147338,0.008331295,-0.007528305,0.01059818,0.00352478,0.5037296,0.5366241,-0.5839981,0.006028175,-0.00554657,-0.002401352,0.3179487,-0.6313812,-0.1244666,0.6962573
-0.04385375,-0.04040527,0.009063717,-0.007162094,0.01099491,0.003646851,0.5037296,0.5366241,-0.5839981,0.006173134,-0.004472733,-0.001542091,0.3176342,-0.6321658,-0.1245745,0.6956694
-0.04513549,-0.04086303,0.008514401,-0.006551743,0.01197147,0.003463745,0.5037296,0.5366241,-0.5839981,0.004915237,-0.00492382,-0.00195694,0.3173563,-0.633001,-0.1246292,0.6950266
-0.04592895,-0.0420227,0.007904049,-0.006155014,0.01297855,0.003616333,0.5037296,0.5366241,-0.5839981,0.004146576,-0.006077766,-0.002426147,0.3171023,-0.633894,-0.1246449,0.6943255
-0.04675292,-0.04153442,0.007873531,-0.005910873,0.0139246,0.003646851,0.5337296,0.5456241,-0.5899982,0.003351212,-0.005587578,-0.002308846,0.3168523,-0.6348332,-0.124603,0.6935886
-0.04699706,-0.04125976,0.007720945,-0.005117416,0.01477909,0.003555298,0.5337296,0.5456241,-0.5899982,0.003137589,-0.005311966,-0.002311707,0.3166473,-0.6357984,-0.1244945,0.6928173
-0.04644775,-0.04132079,0.007110594,-0.005025864,0.01499271,0.003646851,0.5337296,0.5456241,-0.5899982,0.003716469,-0.005372047,-0.00276947,0.3164476,-0.6367795,-0.1243815,0.6920273
-0.04687499,-0.04010009,0.006103514,-0.004537582,0.01511478,0.003311157,0.5427298,0.5306241,-0.5419983,0.00331974,-0.004152298,-0.003622055,0.3162618,-0.6377742,-0.1242313,0.6912227
-0.04721068,-0.04067992,0.007568358,-0.004598618,0.01438236,0.003250122,0.5427298,0.5306241,-0.5419983,0.003011703,-0.004733086,-0.00201416,0.3160867,-0.6386951,-0.1241045,0.6904749
-0.04745482,-0.04162597,0.006622313,-0.004293442,0.01419926,0.00328064,0.5427298,0.5306241,-0.5419983,0.002793312,-0.005677223,-0.002817154,0.3159271,-0.6396161,-0.1239826,0.6897169
-0.04824828,-0.04095458,0.007202147,-0.004415512,0.01432133,0.002975464,0.5697296,0.5276242,-0.5629981,0.002026558,-0.005005836,-0.002095222,0.3157663,-0.6405315,-0.1238532,0.6889638
-0.04971312,-0.04205322,0.006225584,-0.004323959,0.0144434,0.003036499,0.5697296,0.5276242,-0.5629981,0.0005884171,-0.006103516,-0.002923965,0.3155998,-0.6414751,-0.1237186,0.6881859
-0.05047606,-0.04193114,0.004180906,-0.004629135,0.01465702,0.002853394,0.5697296,0.5276242,-0.5629981,-0.0001468658,-0.005980492,-0.004811287,0.3154043,-0.6424806,-0.1235999,0.6873584
-0.05087279,-0.04162597,0.004119871,-0.004415512,0.01459599,0.002700806,0.5277298,0.5426242,-0.5389981,-0.0005159378,-0.005675316,-0.004716873,0.3152186,-0.6434754,-0.1234678,0.6865363
-0.05136107,-0.0425415,0.00363159,-0.004415512,0.01447392,0.002731323,0.5277298,0.5426242,-0.5389981,-0.0009784698,-0.00658989,-0.005047798,0.3150349,-0.644471,-0.1233492,0.6857075
-0.05230712,-0.0427246,0.003692625,-0.0045681,0.01450443,0.002700806,0.5277298,0.5426242,-0.5389981,-0.001897812,-0.006772041,-0.004829407,0.3148392,-0.6454697,-0.1232298,0.6848789
-0.0510559,-0.04211425,0.003967283,-0.005117416,0.01477909,0.002487183,0.5487295,0.5156241,-0.5419983,-0.0006217957,-0.006158829,-0.004394531,0.3146396,-0.6464777,-0.1231453,0.6840347
-0.05139159,-0.04397582,0.003570555,-0.004751205,0.01474857,0.00239563,0.5487295,0.5156241,-0.5419983,-0.0009374619,-0.008012772,-0.004631996,0.314483,-0.6474766,-0.123078,0.6831734
-0.05203246,-0.0427246,0.002349852,-0.004964828,0.01456547,0.002426147,0.5487295,0.5156241,-0.5419983,-0.001554489,-0.006757736,-0.005689621,0.3142788,-0.6484988,-0.1229976,0.6823118
-0.05328368,-0.0432434,0.001342772,-0.005025864,0.01502323,0.002304077,0.5277298,0.5516241,-0.5389981,-0.002780914,-0.00727272,-0.006525993,0.3140683,-0.6495672,-0.1229125,0.6814072
-0.05392455,-0.04421996,-0.0002441406,-0.004812241,0.01493168,0.002182007,0.5277298,0.5516241,-0.5389981,-0.00339222,-0.008260727,-0.007971764,0.3138562,-0.6504784,-0.1226967,0.6806743
-0.05355834,-0.04290771,-0.000579834,-0.004842758,0.01471806,0.002304077,0.5277298,0.5516241,-0.5389981,-0.003001213,-0.00694561,-0.008133888,0.3136307,-0.651561,-0.1226063,0.6797584
-0.05444335,-0.0437622,-0.00112915,-0.005178452,0.01459599,0.002334595,0.5487295,0.5306241,-0.5359982,-0.003856659,-0.0078125,-0.008542061,0.3133886,-0.6524628,-0.1224095,0.6790402
-0.05514525,-0.04406738,-0.00112915,-0.004781723,0.01508427,0.002182007,0.5487295,0.5306241,-0.5359982,-0.004529953,-0.00812912,-0.008399963,0.3131781,-0.653378,-0.1221879,0.6782967
-0.05535887,-0.04452514,-0.00100708,-0.004995346,0.01575565,0.002212524,0.5487295,0.5306241,-0.5359982,-0.004714012,-0.008598328,-0.008128166,0.3129613,-0.6543323,-0.1219596,0.6775175
-0.05633543,-0.0432434,-0.001159668,-0.004507065,0.01630497,0.001937866,0.5547296,0.5276242,-0.5239981,-0.005662918,-0.00732708,-0.008130074,0.3127875,-0.6552998,-0.1217064,0.6767077
-0.05633543,-0.0425415,-0.002502441,-0.004659653,0.01676273,0.002151489,0.5547296,0.5276242,-0.5239981,-0.005633354,-0.00663662,-0.009318352,0.3125988,-0.6562953,-0.1214394,0.6758776
-0.05642699,-0.04312133,-0.002227783,-0.004415512,0.01673222,0.002151489,0.5547296,0.5276242,-0.5239981,-0.005696297,-0.007228851,-0.008890152,0.3124215,-0.6572823,-0.1211602,0.6750501
-0.05511473,-0.04302978,-0.003051758,-0.004079819,0.0167017,0.002212524,0.5757297,0.5306241,-0.5359982,-0.004354477,-0.007149696,-0.009562492,0.3122571,-0.6582591,-0.1208613,0.6742275
-0.0550537,-0.04342651,-0.00201416,-0.004079819,0.01621342,0.001846313,0.5757297,0.5306241,-0.5359982,-0.004267693,-0.007556915,-0.008377075,0.3121064,-0.6592063,-0.1205921,0.6734195
-0.05245971,-0.04339599,-0.002380371,-0.004323959,0.01575565,0.002120972,0.5757297,0.5306241,-0.5359982,-0.001655579,-0.007520676,-0.008563042,0.3119428,-0.6603177,-0.1204842,0.672425
-0.05200194,-0.04354858,-0.0006408691,-0.004262924,0.01480961,0.002059937,0.5877298,0.5366241,-0.5149982,-0.001182556,-0.007666588,-0.006658554,0.3118002,-0.6613328,-0.120399,0.6715083
-0.05181884,-0.04275512,-0.0006713867,-0.004049301,0.0139246,0.002029419,0.5877298,0.5366241,-0.5149982,-0.0009851456,-0.006868362,-0.006532669,0.3116532,-0.6622939,-0.1203123,0.6706443
-0.05181884,-0.04382323,-0.0005493164,-0.004018784,0.01319218,0.001876831,0.5877298,0.5366241,-0.5149982,-0.0009737015,-0.007927895,-0.006260872,0.3115268,-0.6632058,-0.120267,0.6698093
-0.05114745,-0.04425048,-0.0006103516,-0.003896713,0.01160526,0.001937866,0.5787296,0.5426242,-0.5089981,-0.0002946854,-0.00834465,-0.006185532,0.3114034,-0.664028,-0.1202654,0.669052
-0.05215453,-0.04425048,-0.00100708,-0.004232407,0.01072025,0.001937866,0.5787296,0.5426242,-0.5089981,-0.001293182,-0.008336067,-0.006449699,0.311241,-0.6648219,-0.1202899,0.6683344
-0.05242919,-0.04467773,-0.0006103516,-0.004232407,0.01017094,0.001754761,0.5787296,0.5426242,-0.5089981,-0.001550674,-0.00877285,-0.005950928,0.3110301,-0.6654565,-0.1201752,0.6678214
-0.05236815,-0.04519653,0.0003967267,-0.00444603,0.008828163,0.001937866,0.5787296,0.5426242,-0.4999982,-0.001471519,-0.009303093,-0.004850388,0.3107865,-0.6660292,-0.1200937,0.6673784
-0.0533142,-0.04501342,0.0006408673,-0.004354477,0.008828163,0.001907349,0.5787296,0.5426242,-0.4999982,-0.002400398,-0.009131432,-0.004513741,0.310549,-0.666599,-0.1200091,0.6669352
-0.0569763,-0.04501342,0.001159666,-0.004476547,0.008767128,0.001937866,0.5787296,0.5426242,-0.4999982,-0.006044388,-0.009142876,-0.003902435,0.3103029,-0.6671684,-0.1199305,0.6664943
-0.05776976,-0.04437255,0.003143309,-0.004354477,0.009102821,0.001937866,0.5997296,0.5396243,-0.5119983,-0.006820679,-0.008514404,-0.001824379,0.3100659,-0.6677517,-0.1198377,0.6660371
-0.05780028,-0.04400634,0.003173826,-0.003896713,0.00949955,0.001968384,0.5997296,0.5396243,-0.5119983,-0.006833076,-0.008160591,-0.001698494,0.3098541,-0.6683441,-0.1197107,0.6655641
-0.05838011,-0.04458617,0.00463867,-0.004262924,0.009682655,0.001876831,0.5997296,0.5396243,-0.5119983,-0.007395744,-0.008751869,-0.0001354218,0.3096298,-0.6689532,-0.1196025,0.6650758
-0.05932616,-0.04559325,0.004333494,-0.004201889,0.01041508,0.001907349,0.5787296,0.5366241,-0.4849982,-0.008323669,-0.009770393,-0.000336647,0.3094135,-0.6695977,-0.1194723,0.6645511
-0.0595703,-0.04623412,0.005432127,-0.003866196,0.01081181,0.001998901,0.5787296,0.5366241,-0.4849982,-0.00854969,-0.01042461,0.00086689,0.309213,-0.6702548,-0.1193109,0.6640107
-0.06161498,-0.04522704,0.005371092,-0.003957748,0.01142216,0.001846313,0.5787296,0.5366241,-0.4849982,-0.01057625,-0.009428978,0.000916481,0.309021,-0.6709431,-0.1191475,0.6634342
-0.06066893,-0.04568481,0.005218504,-0.004232407,0.01181889,0.001815796,0.5877298,0.5279758,-0.515174,-0.009612083,-0.009898186,0.0008792877,0.3088197,-0.6716569,-0.11899,0.6628336
-0.06094359,-0.0467224,0.006561277,-0.004476547,0.01206303,0.001785278,0.5877298,0.5279758,-0.515174,-0.009869576,-0.01094627,0.002340317,0.3086094,-0.672388,-0.1188406,0.6622168
-0.0613098,-0.04708861,0.008117672,-0.004293442,0.0127039,0.00151062,0.5877298,0.5279758,-0.515174,-0.01021957,-0.01132202,0.004018784,0.3084278,-0.6731439,-0.1186809,0.6615618
-0.06039427,-0.04623412,0.009033199,-0.004354477,0.0127039,0.001327515,0.5877298,0.5279758,-0.515174,-0.009288788,-0.01047516,0.005057335,0.308252,-0.6738988,-0.1185335,0.6609012
-0.05978392,-0.04568481,0.009185787,-0.004262924,0.01239872,0.001113892,0.5877298,0.5279758,-0.515174,-0.008665085,-0.009931564,0.005330086,0.3080886,-0.6746337,-0.1183995,0.6602514
-0.05938719,-0.04577636,0.008972164,-0.004537582,0.01264286,0.001052856,0.5877298,0.5279758,-0.515174,-0.008255005,-0.01002884,0.005239487,0.307916,-0.675386,-0.1182766,0.6595845
-0.05844115,-0.04449462,0.00839233,-0.004507065,0.01276493,0.0009307861,0.5787296,0.5129758,-0.5001739,-0.007296562,-0.008751869,0.00478363,0.307752,-0.6761419,-0.1181555,0.6589079
-0.05889891,-0.04501342,0.007476805,-0.005056381,0.01233768,0.0004425049,0.5787296,0.5129758,-0.5001739,-0.007745743,-0.009271622,0.003992081,0.3075799,-0.6768841,-0.118097,0.6582363
-0.05850218,-0.04473876,0.008697506,-0.004751205,0.01255131,7.629395e-05,0.5787296,0.5129758,-0.5001739,-0.007341385,-0.008995056,0.005336761,0.3074436,-0.677626,-0.118037,0.6575472
-0.05935667,-0.04385375,0.007690428,-0.005147934,0.01285648,0.0001068115,0.5787296,0.5369757,-0.4851739,-0.008189201,-0.008108139,0.004458427,0.3072877,-0.6783919,-0.1179881,0.6568387
-0.05847166,-0.04302978,0.006469725,-0.005025864,0.01395512,-0.0002880096,0.5787296,0.5369757,-0.4851739,-0.00729847,-0.007279396,0.003373146,0.3071675,-0.6792056,-0.1179276,0.6560644
-0.05865477,-0.04196166,0.004943846,-0.004751205,0.01474857,-0.0005321503,0.5787296,0.5369757,-0.4851739,-0.00747776,-0.006205559,0.001988411,0.3070804,-0.6800495,-0.1178474,0.6552449
-0.05880736,-0.04226684,0.005249022,-0.004781723,0.01551151,-0.0006847382,0.5697296,0.5369757,-0.476174,-0.007627487,-0.006503105,0.002441406,0.3070058,-0.6809298,-0.1177585,0.654381
-0.05639647,-0.04122924,0.00564575,-0.004415512,0.01551151,-0.0009899139,0.5697296,0.5369757,-0.476174,-0.005215645,-0.005455971,0.002983093,0.306965,-0.6817978,-0.117667,0.6535123
-0.05459594,-0.04080199,0.006164549,-0.004262924,0.01560307,-0.001447678,0.5697296,0.5369757,-0.476174,-0.003421783,-0.005008698,0.003633499,0.3070266,-0.6825801,-0.1176231,0.652674
-0.05319213,-0.04061889,0.005889891,-0.003377914,0.01541996,-0.001630783,0.5817297,0.5399759,-0.4731738,-0.002027512,-0.004803658,0.00348568,0.3071526,-0.6833298,-0.1175625,0.6518407
-0.05282592,-0.04058837,0.005584715,-0.003103256,0.01517582,-0.001966476,0.5817297,0.5399759,-0.4731738,-0.001673698,-0.004747391,0.003303528,0.3073087,-0.6840598,-0.1175152,0.6510094
-0.05218505,-0.03988647,0.00640869,-0.00279808,0.01426029,-0.001935959,0.5817297,0.5399759,-0.4731738,-0.001044273,-0.004021645,0.004238129,0.3074751,-0.6847167,-0.1174636,0.6502491
-0.05212401,-0.04031371,0.005371092,-0.002126694,0.01361942,-0.00230217,0.6027298,0.5519757,-0.470174,-0.000998497,-0.004421234,0.003306389,0.3076871,-0.6853409,-0.1174237,0.6494981
-0.05245971,-0.03991698,0.005859373,-0.001638412,0.01255131,-0.002088547,0.6027298,0.5519757,-0.470174,-0.001347542,-0.00399971,0.003887177,0.3078992,-0.6858914,-0.1173593,0.6488277
-0.05191039,-0.0392456,0.00576782,-0.0008144379,0.01209354,-0.00230217,0.6027298,0.5519757,-0.470174,-0.0008125305,-0.003303528,0.003880501,0.3081558,-0.6863981,-0.1172701,0.6481859
-0.05313109,-0.03948974,0.007507322,-0.0001125336,0.01206303,-0.002210617,0.5907297,0.5699759,-0.4731738,-0.002046585,-0.003525734,0.005693436,0.3084504,-0.6868507,-0.1171241,0.6475925
-0.05334472,-0.03851318,0.007812498,0.0009231567,0.01123905,-0.002485275,0.5907297,0.5699759,-0.4731738,-0.002272606,-0.002528191,0.006057739,0.3087907,-0.6872306,-0.1169387,0.6470605
-0.05264281,-0.03860473,0.009246822,0.001289368,0.01111698,-0.00254631,0.5907297,0.5699759,-0.4731738,-0.001585007,-0.002596855,0.007543564,0.3091744,-0.6875611,-0.1167453,0.646561
-0.05499266,-0.03909301,0.009216305,0.00214386,0.01065922,-0.002729416,0.5997296,0.5249759,-0.4491739,-0.003948212,-0.003064156,0.007555962,0.3095886,-0.6878513,-0.1165092,0.6460965
-0.05535887,-0.03991698,0.009246822,0.00327301,0.009987831,-0.002668381,0.5997296,0.5249759,-0.4491739,-0.00432682,-0.003868103,0.007646561,0.3099804,-0.6882422,-0.116252,0.6455384
-0.05593871,-0.03948974,0.009429928,0.003852844,0.009774208,-0.002759933,0.5997296,0.5249759,-0.4491739,-0.004920006,-0.00342083,0.007884026,0.3104051,-0.6886076,-0.115976,0.6449942
-0.05593871,-0.03991698,0.01107788,0.004737854,0.009652138,-0.002637863,0.6117297,0.5519757,-0.4521741,-0.004932404,-0.003828049,0.009581566,0.3108689,-0.6889465,-0.1156529,0.6444666
-0.05722044,-0.04025268,0.01193237,0.005439758,0.009896278,-0.003065109,0.6117297,0.5519757,-0.4521741,-0.006228447,-0.004140854,0.01048279,0.3113925,-0.6892766,-0.1153119,0.6439217
-0.05722044,-0.03982543,0.01095581,0.006568909,0.01078129,-0.002882004,0.6117297,0.5519757,-0.4521741,-0.006241798,-0.003692627,0.009553909,0.311974,-0.6896244,-0.1148847,0.6433441
-0.05911253,-0.03967284,0.01202392,0.007331848,0.01175785,-0.002729416,0.5757297,0.5249759,-0.4581738,-0.008146286,-0.003520966,0.01067257,0.3125964,-0.6900024,-0.1143887,0.6427247
-0.06036375,-0.04025268,0.01107788,0.008033752,0.01172733,-0.002668381,0.5757297,0.5249759,-0.4581738,-0.009409904,-0.004081726,0.009773254,0.313252,-0.690362,-0.1138557,0.6421137
-0.0590515,-0.03930663,0.01107788,0.008613586,0.01224613,-0.002973557,0.5757297,0.5249759,-0.4581738,-0.008111954,-0.003113747,0.009820938,0.3139572,-0.6907296,-0.1132978,0.6414724
-0.06048582,-0.0389099,0.01074218,0.009407043,0.01215458,-0.002637863,0.6117297,0.5579758,-0.470174,-0.009558678,-0.002698898,0.00952816,0.3146866,-0.6910756,-0.1126855,0.6408498
